,timestamp,GyrY,GyrX,GyrZ,AccY,AccX,AccZ
191,268.002092,0.89108091592789,0.45447343587875,-0.1529938429594,0.5230122196431061,-0.12488715502680611,0.7914371393164805
192,268.010425,0.78562694787979,0.37719520926476,-0.23068179190159,0.5209575867166326,-0.12474411604355815,0.7945261196214326
193,268.018758,0.7675176858902,0.40928983688354,-0.28816014528275,0.5241041280785388,-0.12301284439709693,0.78959795893455
194,268.027091,0.78096526861191,0.47002124786377,-0.33459874987602,0.5208838715845224,-0.12225959982190815,0.7926561394516306
195,268.035424,0.75345557928085,0.3012490272522,-0.26882141828537,0.5210824402011173,-0.1212669635305602,0.7928853618855377
196,268.04375699999997,0.72686803340912,0.25163426995277,-0.20342826843262,0.5224093612359489,-0.12184868053514082,0.7906424269384265
197,268.05208999999996,0.86154758930206,0.33826157450676,-0.33721140027046,0.5235012696713816,-0.12322740895407551,0.7938866226040591
198,268.060423,0.87087118625641,0.2922071814537,-0.2550665140152,0.5210240519776632,-0.12347117978699386,0.7940406215434173
199,268.068756,0.76803004741669,0.32927098870277,-0.29758620262146,0.5229523717140663,-0.1226814790647857,0.7928656558601224
200,268.077089,0.79684603214264,0.35865050554276,-0.25926730036736,0.521164183713952,-0.12162314385783876,0.7935473383689408
201,268.085422,0.82415074110031,0.41310635209084,-0.36067405343056,0.5222546324437979,-0.1257265465600153,0.7921342947045152
202,268.093755,0.85248011350632,0.34118160605431,-0.23367865383625,0.5206583957282866,-0.12312962084400407,0.7926947729928152
203,268.102088,0.88493347167969,0.47276189923286,-0.30742204189301,0.5215254608465704,-0.12172168614912958,0.7935444189577683
204,268.110421,0.87244653701782,0.31716829538345,-0.27323988080025,0.5231757066687756,-0.1235982106656449,0.7949494342414704
205,268.11875399999997,0.79032731056213,0.32784941792488,-0.30646154284477,0.5221822797035683,-0.12243621203364183,0.7932421625876919
206,268.12708699999996,0.78157997131348,0.31298032402992,-0.31807759404182,0.5223669811170928,-0.12394416088960612,0.7928940228053499
207,268.13542,0.84246504306793,0.35206767916679,-0.19356678426266,0.5206664241090112,-0.12275811360806836,0.7908817699977325
208,268.143753,0.87353503704071,0.29627984762192,-0.30785748362541,0.5226275872211071,-0.12392960032638264,0.7936364777234132
209,268.152086,0.82840275764465,0.23498497903347,-0.24981558322906,0.5233085398771327,-0.12266761186171529,0.7951231392062438
210,268.160419,0.8158261179924,0.36415755748749,-0.30941998958588,0.5217057344864826,-0.12059912389638469,0.7939385394660795
211,268.168752,0.90813982486725,0.25993326306343,-0.30127462744713,0.522441474758849,-0.12410474066831631,0.7937027970138857
212,268.177085,0.81713247299194,0.31067505478859,-0.3379285633564,0.5206787829496418,-0.1226223488243255,0.7939991659047653
213,268.18541799999997,0.89505100250244,0.36725690960884,-0.40362912416458,0.5216641328772724,-0.12282744962341938,0.792782452641701
214,268.19375099999996,0.98083311319351,0.24197767674923,-0.30201748013496,0.5204649360812438,-0.12302162695904183,0.7936415866929653
215,268.202084,0.88974893093109,0.25942099094391,-0.31631019711494,0.522467749459403,-0.12452953932236631,0.7940933169150836
216,268.210417,0.77762252092361,0.306615203619,-0.37252059578896,0.5215297913064765,-0.12271356825925815,0.7937603580708408
217,268.21875,0.95735764503479,0.27416196465492,-0.30254250764847,0.5227253874953908,-0.12452147444900202,0.7925378059854316
218,268.227083,0.93694317340851,0.20917867124081,-0.28807052969933,0.5192431138486275,-0.12218444931263775,0.7928591844986898
219,268.235416,0.91281455755234,0.43968117237091,-0.3043355345726,0.5214305799834581,-0.12290629805350817,0.7947444429202959
220,268.243749,0.86433964967728,0.32435303926468,-0.28121864795685,0.5217882078521102,-0.12167274951934795,0.7918853175883387
221,268.252082,0.83534419536591,0.40465366840363,-0.25450301170349,0.5222896653778694,-0.1228230705066602,0.7924182074410571
222,268.26041499999997,0.80227625370026,0.36374774575233,-0.21136866509914,0.5216166924457163,-0.12402372700827448,0.7943013249611367
223,268.26874799999996,0.76936203241348,0.32571065425873,-0.24727985262871,0.5224845360736459,-0.12230193128391223,0.7979127825522908
224,268.277081,0.79966354370117,0.40854704380035,-0.24628084897995,0.5228698983484388,-0.12036701854394388,0.7913722797315949
225,268.285414,0.95447617769241,0.35281050205231,-0.34914764761925,0.5221582432182469,-0.1223296778542653,0.7931897105002887
226,268.293747,0.81108748912811,0.40465366840363,-0.30224794149399,0.5223049922865265,-0.12235668240761224,0.7955122480587081
227,268.30208,0.86769509315491,0.32117691636086,-0.1654935926199,0.5229889130105776,-0.12314421789986735,0.7944041855481204
228,268.310413,0.83078497648239,0.32581308484077,-0.28480470180511,0.5215787401004713,-0.1231172133465204,0.7936013474756356
229,268.318746,0.8497394323349,0.34673988819122,-0.26748943328857,0.5222268980376571,-0.12238660637213265,0.7928736842408469
230,268.32707899999997,0.82003968954086,0.39921060204506,-0.32677358388901,0.5232881039989233,-0.12301430410268366,0.7918022603404765
231,268.33541199999996,0.71103835105896,0.24151660501957,-0.38603213429451,0.5226502126576948,-0.12431859970092754,0.7926853335633571
232,268.343745,0.84720361232758,0.40695893764496,-0.19576959311962,0.5226414544241765,-0.12260556221008263,0.7957888136104663
233,268.352078,0.90409284830093,0.37409588694572,-0.33403524756432,0.5208159952747581,-0.12467332032262039,0.7910518743553938
234,268.360411,0.91444098949432,0.33979845046997,-0.21787467598915,0.5212554153130979,-0.12227715278158366,0.7952415213292958
235,268.368744,0.75337874889374,0.31487584114075,-0.37176504731178,0.5217086538976551,-0.1226515551002653,0.7926240259287305
236,268.377077,0.74046909809113,0.25181353092194,-0.20458088815212,0.521057625206149,-0.1228646477874449,0.7935822739893071
237,268.38541,0.84218317270279,0.30977854132652,-0.24015906453133,0.5214152530748021,-0.12312379418587245,0.7915190774567276
238,268.393743,0.77059137821198,0.29366719722748,-0.33362540602684,0.5205218645991112,-0.12217347719231428,0.7928795230631928
239,268.40207599999997,0.81300860643387,0.37788677215576,-0.24871422350407,0.5218728707761183,-0.12309458790993162,0.7929335321698867
240,268.410409,0.79092919826508,0.40890568494797,-0.24558927118778,0.5219349082635377,-0.12278365845582959,0.7948041935356295
241,268.418742,0.73906034231186,0.26958981156349,-0.26956421136856,0.523990271042804,-0.12413030984450406,0.7920898709978378
242,268.427075,0.78934109210968,0.27007648348808,-0.34499809145927,0.5224714473802214,-0.12324715147213061,0.7926022276586417
243,268.435408,0.74615544080734,0.42867982387543,-0.13283541798592,0.5227421741096336,-0.12202823648647347,0.7927634764690785
244,268.443741,0.79497629404068,0.32376393675804,-0.25527149438858,0.5217648525627295,-0.12246764436060102,0.7915278843470979
245,268.452074,0.7436580657959,0.43163827061653,-0.32206058502197,0.5229057097921561,-0.12482589604903264,0.7915344530222367
246,268.460407,0.70863062143326,0.29251453280449,-0.22120451927185,0.5216984359585509,-0.12206985025989794,0.7932970961745908
247,268.46873999999997,0.70852816104889,0.29676651954651,-0.35780522227287,0.5210254630263969,-0.12347338150958673,0.795036189410151
248,268.47707299999996,0.81869494915009,0.36702632904053,-0.27909269928932,0.5201021992430397,-0.12076626018602041,0.7946290288652693
249,268.485406,0.69976806640625,0.30457884073257,-0.35780519247055,0.5219217222564071,-0.12195449702593773,0.7948559157702387
250,268.493739,0.80765521526337,0.32086950540543,-0.27017894387245,0.5230742571305255,-0.12311648349372754,0.795239964310004
251,268.502072,0.84850990772247,0.36418321728706,-0.27445650100708,0.521073681967599,-0.12435436248779284,0.7936662557173744
252,268.510405,0.82128196954727,0.39881363511086,-0.28344711661339,0.5206598067770193,-0.12309458790993162,0.7912102524115111
253,268.518738,0.77945405244827,0.21751609444618,-0.317437261343,0.5205233243046978,-0.12358653302095407,0.7939502171107704
254,268.527071,0.76699274778366,0.2620464861393,-0.22021840512753,0.5210882790234622,-0.12296175470157548,0.7924736762533378
255,268.53540399999997,0.73629397153854,0.28767344355583,-0.22471368312836,0.5207853414574448,-0.12102609994460102,0.7907008151618806
256,268.54373699999996,0.69728350639343,0.31428664922714,-0.26172623038292,0.5231895738718458,-0.12226178938028774,0.7937852703795142
257,268.55207,0.82285726070404,0.41206899285316,-0.16107511520386,0.5197525510982591,-0.12216763836996938,0.794134188671501
258,268.560403,0.85335105657578,0.37996152043343,-0.20043137669563,0.5204729644619683,-0.1221880864123908,0.7942422555417429
259,268.568736,0.71354860067368,0.24205453693867,-0.19464257359505,0.5231392140291173,-0.12238660637213265,0.7936006176228428
260,268.577069,0.76229250431061,0.34333324432373,-0.10852752625942,0.5228487326174367,-0.12253330678355918,0.7942947562859979
261,268.585402,0.79108279943466,0.21431429684162,-0.29202789068222,0.522280858487499,-0.12424267068201224,0.7953274493314785
262,268.593735,0.74251818656921,0.29622861742973,-0.25993326306343,0.5231640290240857,-0.12410547052110917,0.7925138181569622
263,268.602068,0.72371739149094,0.32791340351105,-0.1832442432642,0.5214320396890448,-0.12328071253640306,0.7958158181638132
264,268.61040099999997,0.75376284122467,0.31528559327126,-0.25183913111687,0.5227056814699754,-0.12329020062271429,0.7925700168220366
265,268.61873399999996,0.82707077264786,0.42888474464417,-0.25165984034538,0.5214371486585969,-0.12490832075780713,0.795906952449254
266,268.627067,0.73988002538681,0.43774729967117,-0.21354588866234,0.5214590442423919,-0.12434122513751632,0.7928656558601224
267,268.6354,0.70466047525406,0.34456267952919,-0.22243404388428,0.5212327898765091,-0.12153702122824489,0.7926094288728672
268,268.643733,0.70110005140305,0.32122811675072,-0.17699438333511,0.5205182153351449,-0.12264936554188673,0.7966493587104642
269,268.652066,0.73429602384567,0.40083718299866,-0.28385692834854,0.5212371689932683,-0.1215311824059,0.7933845811960653
270,268.660399,0.7334251999855,0.35665261745453,-0.27904146909714,0.5217407674205551,-0.1205093520028255,0.7952056612287245
271,268.668732,0.81700438261032,0.33805665373802,-0.22504664957523,0.521709383750448,-0.12126185456100814,0.7937940286130316
272,268.67706499999997,0.84776711463928,0.33831280469894,-0.30419465899467,0.5208459192392775,-0.12265960780941734,0.7914015711570275
273,268.68539799999996,0.89776605367661,0.45370498299599,-0.37471064925194,0.5208583267367612,-0.12096917142673366,0.7945042240376378
274,268.693731,0.70919412374496,0.38259983062744,-0.3551669716835,0.5224685279690489,-0.12198300994172347,0.7942050817061439
275,268.702064,0.87394487857819,0.3908988237381,-0.33728823065758,0.5233632788366204,-0.12240340515058876,0.7930708418087081
276,268.710397,0.96866631507874,0.32450672984123,-0.3028627038002,0.5224108209415357,-0.12321571914517142,0.7941362809161755
277,268.71873,0.82089775800705,0.33946540951729,-0.2788365483284,0.5218903872431541,-0.12167496340615408,0.7935378502826306
278,268.727063,0.81034487485886,0.37353244423866,-0.33967038989067,0.5222407652407275,-0.12336464560761734,0.7920839348617866
279,268.735396,0.86344301700592,0.33316430449486,-0.22435507178307,0.5211452075413295,-0.12383684820058366,0.7910941085036918
280,268.743729,0.90122407674789,0.2924633026123,-0.29835459589958,0.5225538720889968,-0.12122171265738366,0.7957289656814265
281,268.75206199999997,0.73478275537491,0.38490509986877,-0.32366141676903,0.5202846624413315,-0.12249973355507345,0.7941860082198163
282,268.76039499999996,0.81052398681641,0.37068918347359,-0.34545919299126,0.5211568851860203,-0.12276614198879285,0.7894446898479847
283,268.768728,0.89018428325653,0.47058472037315,-0.24187523126602,0.5226867052973531,-0.12278876742538163,0.7968347413199285
284,268.777061,0.91597777605057,0.41828045248985,-0.3266327381134,0.5213481066178306,-0.1216267931218051,0.79309774904835
285,268.785394,0.85317170619965,0.32939904928207,-0.28690505027771,0.5214327695418377,-0.12207855983656327,0.7930465620391224
286,268.793727,0.89523029327393,0.40035048127174,-0.27704355120659,0.5209437195135622,-0.12281869138990102,0.7936020773284285
287,268.80206,0.85967779159546,0.37860399484634,-0.38131913542747,0.5218020750551805,-0.12101953126946223,0.7959187274076499
288,268.810393,0.86613249778748,0.39617535471916,-0.24594788253307,0.5203656761013734,-0.12251435493936325,0.7942773371326683
289,268.81872599999997,0.86582505702972,0.32773408293724,-0.35660135746002,0.521901335035052,-0.12250265296624592,0.7909912965735612
290,268.82705899999996,0.80424857139587,0.42870545387268,-0.2400054037571,0.5219480456138142,-0.121466955360101,0.7936363804097082
291,268.835392,0.75353235006332,0.34976235032082,-0.29243770241737,0.5221494849847286,-0.1237354229907602,0.7936487879071918
292,268.843725,0.86405777931213,0.36848637461662,-0.32079267501831,0.522302851385,-0.12214795667297958,0.7978165392972989
293,268.852058,0.85391449928284,0.39942836761475,-0.30655112862587,0.5201642367304591,-0.12246249889840918,0.7913407987477825
294,268.860391,0.87527680397034,0.40424385666847,-0.25673148036003,0.5200036691159622,-0.12176331208676734,0.7928540755291378
295,268.868724,0.80957633256912,0.32883554697037,-0.25404196977615,0.5220772295582051,-0.12160927665476938,0.7921167782374785
296,268.877057,0.81995010375977,0.43075460195541,-0.31771898269653,0.5221940060051122,-0.12127718146966428,0.7921445126436193
297,268.88539,0.8070917725563,0.39192339777946,-0.32655587792397,0.5218721409233245,-0.12199830035774081,0.7929072574693327
298,268.89372299999997,0.88282018899918,0.2876478433609,-0.26795047521591,0.521067843145254,-0.12202239766412855,0.7938027868465499
299,268.902056,0.77307611703873,0.40467929840088,-0.24797143042088,0.5220604429439623,-0.12325443783584897,0.796265407484405
300,268.910389,0.7787880897522,0.42286545038223,-0.23554852604866,0.5197861729835979,-0.12131878307887449,0.7923393833393948
301,268.918722,0.77468979358673,0.39325538277626,-0.28262749314308,0.5208196445387234,-0.12239392922849082,0.7927956873056836
302,268.927055,0.74907547235489,0.33990088105202,-0.32986009120941,0.521473592641402,-0.12275808927964184,0.7931414429022337
303,268.935388,0.775534927845,0.31003469228745,-0.24038957059383,0.5229122298104418,-0.12269972538461531,0.7938655541867622
304,268.943721,0.88265365362167,0.28526574373245,-0.28938964009285,0.5210182131553184,-0.12142462389809694,0.7938173839024132
305,268.952054,0.78800910711288,0.35957261919975,-0.22584068775177,0.5223794372714295,-0.12306904306217142,0.7907862079386805
306,268.96038699999997,0.91494053602219,0.33392000198364,-0.23668836057186,0.5213415379426918,-0.12112466656431836,0.7966290201459612
307,268.96871999999996,0.87268978357315,0.4609537422657,-0.22289505600929,0.5231479722626357,-0.12099182119174896,0.7947736370320224
308,268.977053,0.8107802271843,0.34287217259407,-0.13649825751781,0.5209480986303214,-0.12332012458723468,0.7924415627304388
309,268.985386,0.81352096796036,0.39200022816658,-0.2512244284153,0.5226407245713836,-0.1230077354275449,0.7932889704801601
310,268.993719,0.86403220891953,0.45511376857758,-0.21772101521492,0.5207335219091296,-0.1234828817601102,0.7933889603128235
311,269.002052,0.79231232404709,0.4738889336586,-0.25386264920235,0.5214415764322081,-0.1214275433092704,0.7921919044183223
312,269.010385,0.76859360933304,0.37071487307549,-0.25583499670029,0.5221560536598673,-0.1223654406411306,0.7946742797384458
313,269.018718,0.88355016708374,0.31679683923721,-0.27832427620888,0.5200781141008652,-0.12372593490444897,0.7946421662155458
314,269.027051,0.92320102453232,0.39763537049294,-0.32865625619888,0.5226312364850724,-0.12340040839448264,0.7937006074555061
315,269.03538399999996,0.87373995780945,0.4226861000061,-0.25895988941193,0.5199022195777111,-0.12205526536824794,0.7945882544225571
316,269.043717,0.80750155448914,0.49422663450241,-0.2143911421299,0.5222670399412815,-0.12310188643786325,0.7961923735482357
317,269.05205,0.76674938201904,0.29991707205772,-0.27481514215469,0.5204474196142082,-0.12238220292694693,0.7971236657123173
318,269.060383,0.8987649679184,0.44765993952751,-0.28997871279716,0.5222976937585949,-0.12385218727345407,0.7950332699989785
319,269.068716,0.79921531677246,0.3554103076458,-0.29537057876587,0.5240844220531234,-0.12256615015925204,0.7954027214828806
320,269.077049,0.8299013376236,0.34339728951454,-0.35205489397049,0.5235071084937275,-0.12185304748768672,0.7932844940496948
321,269.085382,0.91187959909439,0.34123280644417,-0.2524026632309,0.5211379090133978,-0.1203845350109796,0.7904519353594102
322,269.093715,0.92276573181152,0.40437197685242,-0.2504303753376,0.5212327898765091,-0.12300046122803979,0.7963078362601143
323,269.10204799999997,0.79958689212799,0.40531969070435,-0.3240969479084,0.5210547057949765,-0.12284423623766223,0.791141646248954
324,269.11038099999996,0.82813376188278,0.38858073949814,-0.30915096402168,0.5209196343713877,-0.12257125912880408,0.7923474603769735
325,269.118714,0.788201212883,0.30187657475471,-0.29286035895348,0.5218538459466427,-0.12335879462105918,0.7935034498876459
326,269.127047,0.92696630954742,0.42463275790215,-0.36484915018082,0.5215225414353969,-0.12073268695753467,0.7899088762244397
327,269.13538,0.8784145116806,0.42738631367683,-0.38363718986511,0.5211795106226081,-0.12219609046468978,0.7943537770485387
328,269.143713,0.76334261894226,0.40378278493881,-0.36523336172104,0.5187176198375469,-0.12479959702005203,0.7930466593528276
329,269.152046,0.90399038791656,0.40941792726517,-0.20440159738064,0.5214765607094275,-0.12426167118306018,0.7940758004480479
330,269.160379,0.85096889734268,0.3883886039257,-0.33774927258492,0.5223465938957367,-0.1218734833658959,0.7935603784055122
331,269.16871199999997,0.93065482378006,0.43475040793419,-0.31943511962891,0.5215393280496398,-0.12292597975049692,0.7909205008526234
332,269.17704499999996,0.78239953517914,0.46067199110985,-0.2919510602951,0.5215458480679255,-0.12227052328537959,0.7949486070749714
333,269.185378,0.9030681848526,0.37568399310112,-0.26999965310097,0.5227180889674592,-0.12233624652940409,0.7942327187985785
334,269.193711,0.80363374948502,0.3095223903656,-0.27747896313667,0.521922500766053,-0.12311429393534795,0.794358253479004
335,269.202044,0.91556811332703,0.27650564908981,-0.33093592524529,0.5245347412265081,-0.12241726018944592,0.7920299257550918
336,269.210377,0.91933333873749,0.32220149040222,-0.2303231805563,0.5241245639567469,-0.1210158576770704,0.7887497240183305
337,269.21871,0.84243935346603,0.48287954926491,-0.30647429823875,0.5198576985573286,-0.12219246552915,0.7921168755511847
338,269.227043,0.88029718399048,0.36326104402542,-0.40624177455902,0.5201233649740418,-0.12415364080545817,0.7930291428857917
339,269.235376,0.83665055036545,0.39287111163139,-0.28255060315132,0.5237472300626795,-0.12144651948189285,0.7935852907141856
340,269.24370899999997,0.81705576181412,0.34604835510254,-0.3338303565979,0.5228757371707836,-0.1211151541495806,0.797794546399798
341,269.25204199999996,0.82497048377991,0.37604260444641,-0.34761083126068,0.5219583122097714,-0.12217932817887245,0.7954012131204408
342,269.260375,0.83633035421371,0.34534391760826,-0.25208249688148,0.5221750298324898,-0.12507331614591632,0.7937853190363673
343,269.268708,0.82799297571182,0.30268341302872,-0.29727879166603,0.5203547283094755,-0.12240119126378264,0.7947428859010031
344,269.277041,0.73334830999374,0.43597987294197,-0.21095882356167,0.5195941730421418,-0.12416606046715509,0.7906402373800469
345,269.285374,0.80301904678345,0.43869498372078,-0.27586528658867,0.5226991127948367,-0.11952546178078162,0.795720937300702
346,269.293707,0.86718273162842,0.30037814378738,-0.29346227645874,0.5223130206672509,-0.12109251654877959,0.7949472446830907
347,269.30204,0.96372270584106,0.45460143685341,-0.23557411134243,0.5223217789007694,-0.12132026711288774,0.7946035813312142
348,269.31037299999997,0.86882209777832,0.31636142730713,-0.30265784263611,0.5222385756823479,-0.12374561660143775,0.7943216635256398
349,269.31870599999996,0.79244035482407,0.2594977915287,-0.30165883898735,0.5217108434560346,-0.12139322806377754,0.7922131188061775
350,269.327039,0.7750226855278,0.42099556326866,-0.2409530878067,0.5204145762385153,-0.12183186959247244,0.7943275023479847
351,269.335372,0.80258357524872,0.45465266704559,-0.3114178776741,0.5215327593745019,-0.12191144787535406,0.7943115429002408
352,269.343705,0.88542008399963,0.37358364462852,-0.29082405567169,0.522061172796755,-0.12110860980286937,0.7948283759915102
353,269.352038,0.96077710390091,0.44599503278732,-0.30388724803925,0.5214911577652908,-0.1216961291371561,0.7924700269893723
354,269.360371,0.84566688537598,0.4160008430481,-0.16231742501259,0.5210590849117357,-0.12168665321505814,0.7930904991772714
355,269.368704,0.77586793899536,0.43623602390289,-0.30875399708748,0.5211853494449541,-0.12299532793006122,0.7935626652775979
356,269.377037,0.79780668020248,0.51916217803955,-0.29703551530838,0.5193066110416336,-0.12227565658335816,0.7940531750114591
357,269.38536999999997,0.88288426399231,0.26779681444168,-0.25552758574486,0.5208904402596612,-0.1220537813342347,0.7925189271265143
358,269.39370299999996,0.80340325832367,0.38851669430733,-0.19927874207497,0.5225042420990612,-0.12314202834148776,0.7912146315282703
359,269.402036,0.77622658014297,0.35970067977905,-0.3919489979744,0.5221370774872448,-0.12406678832307141,0.7913664409092489
360,269.410369,0.82473987340927,0.40191292762756,-0.27681303024292,0.5200168064662387,-0.12166693502542959,0.7929021484997806
361,269.418702,0.84580761194229,0.28041180968285,-0.21501868963242,0.5221246699897611,-0.12167133847061427,0.7946137992703183
362,269.427035,0.88270497322083,0.41728150844574,-0.20470896363258,0.5218341885780806,-0.12120565589593367,0.7913168109193143
363,269.435368,0.85978025197983,0.34072056412697,-0.30191498994827,0.5209305821632857,-0.12233919026900306,0.7923701344704143
364,269.443701,0.81733745336533,0.3942286670208,-0.3178982436657,0.5219809376463601,-0.12351573730001632,0.7918167600826336
365,269.45203399999997,0.85082805156708,0.43317511677742,-0.28118023276329,0.5223137505200448,-0.12249097532155612,0.7955881040923448
366,269.46036699999996,0.92240703105927,0.37091973423958,-0.26423645019531,0.5219611829640918,-0.12308436997082754,0.7950450449573755
367,269.4687,0.82409960031509,0.35485956072807,-0.29156681895256,0.5216247208264408,-0.12079692616754693,0.792146750858852
368,269.477033,0.81897670030594,0.4181267619133,-0.36331230401993,0.5215364086384673,-0.12397992367647143,0.7922451350153704
369,269.485366,0.84594851732254,0.50905728340149,-0.30667921900749,0.522007893542854,-0.11968094475415306,0.7915760546314469
370,269.493699,0.7756758928299,0.37628597021103,-0.1635340899229,0.5218808991568428,-0.12214793234455305,0.7931349715408009
371,269.502032,0.86733639240265,0.42847490310669,-0.21144551038742,0.5208203743915173,-0.1221946550875296,0.7940670908713826
372,269.510365,0.82645606994629,0.440001308918,-0.31723228096962,0.5220385473601673,-0.12279533610052042,0.7931853313835295
373,269.518698,0.78793227672577,0.40765053033829,-0.28813451528549,0.5236713253721897,-0.12263695804440204,0.7944129924384918
374,269.52703099999997,0.78531962633133,0.43262445926666,-0.40204104781151,0.5202445691945602,-0.12195963032391632,0.7930933212747376
375,269.535364,0.79757612943649,0.34283375740051,-0.37290486693382,0.5203737044820979,-0.12235011373247448,0.791189816533303
376,269.543697,0.84653759002686,0.295101583004,-0.23700849711895,0.5218721895801776,-0.12234499259870917,0.7935144463363958
377,269.55203,0.88731551170349,0.36817899346352,-0.26887261867523,0.5219349082635377,-0.12256833971763163,0.7936247027650173
378,269.560363,0.83390980958939,0.40109327435493,-0.32455796003342,0.5218232894430357,-0.12053416699779285,0.7935443703009153
379,269.568696,0.82368981838226,0.44999089837074,-0.31144350767136,0.5202036487812898,-0.12344273985648672,0.7922825034783806
380,269.577029,0.79466885328293,0.38792762160301,-0.32793906331062,0.5212955085598693,-0.12289895086872347,0.7927312169756204
381,269.585362,0.84640961885452,0.47091776132584,-0.27619829773903,0.5214546651256327,-0.12199684065215406,0.7959887932757937
382,269.59369499999997,0.75264877080917,0.33653262257576,-0.28635436296463,0.5210415684447,-0.12125601573866224,0.7940816392703928
383,269.60202799999996,0.93221718072891,0.33359974622726,-0.31682246923447,0.5206765933912633,-0.12183702721887754,0.7935474356826469
384,269.610361,0.83265465497971,0.26643925905228,-0.27238175272942,0.5207991600036621,-0.12338069020485407,0.7938625374618836
385,269.618694,0.78603678941727,0.40826526284218,-0.34428092837334,0.5248150533559367,-0.1218406521544163,0.7953727975183601
386,269.627027,0.79407966136932,0.38979741930962,-0.3355720937252,0.5218232407861826,-0.12042540676739795,0.7928612767433633
387,269.63536,0.89382153749466,0.45334634184837,-0.23155270516872,0.5194197382245744,-0.12510249809342958,0.7932838615106081
388,269.643693,0.816530585289,0.40738159418106,-0.29606214165688,0.5214561734880724,-0.12280337664545816,0.7934108072397662
389,269.652026,0.84968817234039,0.4462768137455,-0.29159247875214,0.521062734175702,-0.12086772188848366,0.7919036612218744
390,269.66035899999997,0.85793596506119,0.46274676918983,-0.25112193822861,0.5223524327180826,-0.12119251854565714,0.7930882123051857
391,269.66869199999996,0.83139967918396,0.45962184667587,-0.29876446723938,0.5221815985076286,-0.12293181857284184,0.7916628098001285
392,269.677025,0.93120551109314,0.30710181593895,-0.37710556387901,0.5218736006289112,-0.12331574547047551,0.7917284965515132
393,269.685358,0.83424282073975,0.3735836148262,-0.33803105354309,0.522590364728655,-0.12119908722079488,0.792018248110401
394,269.693691,0.91249430179596,0.3319348692894,-0.26177749037743,0.5209028477571449,-0.1235879927265398,0.7953779064879122
395,269.702024,0.88211578130722,0.46036463975906,-0.25719252228737,0.5220465757408919,-0.12215305347831835,0.7950714169716346
396,269.710357,0.87799191474915,0.41938188672066,-0.24845805764198,0.5206459395739499,-0.12266763619014183,0.7948042908493357
397,269.71869,0.84144043922424,0.37143197655678,-0.35760033130646,0.520351808898303,-0.12347777279055816,0.794556043585952
398,269.727023,0.85452926158905,0.34479320049286,-0.36679583787918,0.5219261500300194,-0.12038235761681428,0.7951408016438387
399,269.73535599999997,0.83498561382294,0.43723496794701,-0.24361695349216,0.5226837858861806,-0.12278511816141528,0.7942152023315429
400,269.74368899999996,0.84202951192856,0.35234940052032,-0.23557411134243,0.5209283926049061,-0.12388579699457959,0.7902972552241112
401,269.752022,0.81989878416061,0.36879375576973,-0.32673513889313,0.522280907144352,-0.12448866756594897,0.7940860670440051
402,269.760355,0.88470286130905,0.45593339204788,-0.30447635054588,0.5224794271040938,-0.1220647047977061,0.7970550595497602
403,269.768688,0.82251143455505,0.3918209373951,-0.29182296991348,0.51943876305405,-0.12264717598350713,0.7919116409457458
404,269.777021,0.85360717773438,0.51087588071823,-0.27717161178589,0.5216145028873367,-0.1252973687892061,0.7947282888451398
405,269.785354,0.88489490747452,0.44815945625305,-0.23522832989693,0.5220706608830663,-0.12047430690453978,0.7909299889389346
406,269.793687,0.85169899463654,0.4216231405735,-0.24260525405407,0.5194204680773673,-0.12227784614173776,0.7923313549586704
407,269.80201999999997,0.84643512964249,0.34207811951637,-0.36992079019547,0.5204065478577908,-0.12510907893278161,0.7962049270162774
408,269.81035299999996,0.78350096940994,0.38380366563797,-0.32115125656128,0.5203861119795815,-0.12355077023408877,0.7941195916156377
409,269.818686,0.86344301700592,0.4407953619957,-0.33062854409218,0.5224903748959908,-0.12441858953359183,0.7914379664829795
410,269.827019,0.95819008350372,0.40319365262985,-0.31280103325844,0.5215145130546724,-0.12159831669865814,0.7904766530406714
411,269.835352,0.88608598709106,0.41968920826912,-0.29704827070236,0.5217239808063122,-0.12290408416670204,0.7940042748743172
412,269.843685,0.77871114015579,0.46917593479156,-0.31887158751488,0.5227341457289091,-0.12317049260042141,0.7917627996327928
413,269.852018,0.85499036312103,0.38541740179062,-0.29430755972862,0.5235414115750061,-0.1201663211900357,0.7924380107801785
414,269.860351,0.87520009279251,0.43849006295204,-0.29120820760727,0.5234837532043458,-0.12034147369618367,0.7937867300850999
415,269.868684,0.91572177410126,0.31830814480782,-0.31802639365196,0.5213999261661448,-0.1220537813342347,0.7944305089055275
416,269.87701699999997,0.83992910385132,0.3771695792675,-0.271254748106,0.5201788337863223,-0.12120419619034795,0.7927882914640468
417,269.88534999999996,0.9093182682991,0.42862862348557,-0.27919515967369,0.5217699615322816,-0.12146987477127345,0.7932488285765357
418,269.893683,0.74515646696091,0.40998142957687,-0.24036398530006,0.5228407042367121,-0.12103921296645204,0.7933917824102907
419,269.902016,0.81854128837585,0.44699400663376,-0.30281150341034,0.5213546752929683,-0.12163045454998367,0.7923714482054418
420,269.910349,0.74054592847824,0.46523135900497,-0.33283135294914,0.5215137832018796,-0.12385951012981224,0.7978084136028682
421,269.918682,0.95040333271027,0.37220042943954,-0.28360080718994,0.5220465757408919,-0.1216961291371561,0.7929729442207183
422,269.927015,0.90888279676437,0.4778079688549,-0.31029084324837,0.5232756965014398,-0.12315151642779898,0.7947618620736254
423,269.935348,0.93029624223709,0.56653571128845,-0.43487852811813,0.5205123765128,-0.12172898467706224,0.7896169351071725
424,269.94368099999997,0.87545609474182,0.54233014583588,-0.32750359177589,0.5204196852080673,-0.12247712028269898,0.7910256969685459
425,269.95201399999996,0.85847395658493,0.44520103931427,-0.41218429803848,0.5225254078300632,-0.12205159177585509,0.7918832253436653
426,269.960347,0.9220484495163,0.39940282702446,-0.2735344171524,0.521291907952756,-0.12354272968915,0.7920430631053693
427,269.96868,0.78818845748901,0.49199822545052,-0.16213811933994,0.5232019813693296,-0.12155234813690202,0.7908073736696826
428,269.977013,0.8067587018013,0.43331596255302,-0.21994942426682,0.5217079727017153,-0.12192531507842347,0.7932436709501306
429,269.985346,0.91456907987595,0.44763433933258,-0.3542448580265,0.5212875288359969,-0.12081298292899591,0.7939655440194264
430,269.993679,0.90854972600937,0.36515656113625,-0.26815545558929,0.5211773210642285,-0.12243039753972244,0.7921415932324469
431,270.002012,0.76555824279785,0.32861784100533,-0.31330052018166,0.5202496295072592,-0.12241944974782551,0.7942911070220325
432,270.010345,0.85168606042862,0.37983345985413,-0.23434461653233,0.5213787604351428,-0.12240631239754794,0.7945837779920928
433,270.01867799999997,0.85829454660416,0.26771995425224,-0.28869804739952,0.5204247941776193,-0.12374783048824388,0.7950224195207867
434,270.027011,0.92304736375809,0.2836520075798,-0.33544397354126,0.5207276830867846,-0.12331209620650917,0.7922729667352173
435,270.035344,0.90349090099335,0.37602975964546,-0.30430990457535,0.5216166924457163,-0.12416023380902345,0.7908118501001479
436,270.043677,0.84167104959488,0.35634523630142,-0.30819052457809,0.52002629455255,-0.12206031351673366,0.7930020410187387
437,270.05201,0.84466779232025,0.42978122830391,-0.35419362783432,0.5205904707616693,-0.12102900719156019,0.7929940126380143
438,270.060343,0.91187959909439,0.47173738479614,-0.33664789795876,0.5214225516027337,-0.12182751480413978,0.7932232837287745
439,270.068676,0.93160247802734,0.50426745414734,-0.37312251329422,0.5205320825382153,-0.12392738643957653,0.7933247332670255
440,270.077009,0.99302542209625,0.58436316251755,-0.30137705802917,0.5219641023752642,-0.12155891681204081,0.7917657190439653
441,270.08534199999997,1.0621325969696,0.5990144610405,-0.41241481900215,0.522932665688651,-0.12168956046201734,0.7948217100026653
442,270.09367499999996,0.95327210426331,0.62391155958176,-0.439079195261,0.5218991454766725,-0.1228748900549755,0.7923350042226367
443,270.102008,1.11739540100098,0.78949475288391,-0.30840817093849,0.5219859979590592,-0.12123193059648774,0.7909956756903204
444,270.110341,1.08512139320374,0.69538807868958,-0.34065651893616,0.5216458865574428,-0.12346463544028163,0.7930021383324448
445,270.118674,1.09950387477875,0.72408878803253,-0.29238647222519,0.5200087780855143,-0.12144432992351324,0.793257586810054
446,270.127007,1.1470822095871,0.75353229045868,-0.33471402525902,0.5218451363699775,-0.12187714479407448,0.7918876531172775
447,270.13534,1.17446398735046,0.75683659315109,-0.38740253448486,0.5213356991203459,-0.12262088911873978,0.7940998855902224
448,270.143673,1.16625452041626,0.74852484464645,-0.45480638742447,0.524065445880501,-0.12203626486719897,0.7911759979870857
449,270.152006,1.10198855400085,0.72508776187897,-0.47142997384071,0.5233953923595194,-0.12336683516599693,0.7937028456707388
450,270.16033899999996,1.10485732555389,0.66440767049789,-0.3210232257843,0.5229027903809836,-0.12306466394541223,0.7938611264131509
451,270.168672,1.10626602172852,0.76517403125763,-0.35462906956673,0.5219626426696775,-0.12436239086851733,0.7919693479732591
452,270.177005,1.05309081077576,0.67288589477539,-0.32673513889313,0.5236939508087786,-0.1244390254118,0.7923058101109091
453,270.185338,1.1368236541748,0.66407465934753,-0.39066827297211,0.522953831419653,-0.12384052179297653,0.7929649158399928
454,270.193671,1.11100471019745,0.67483270168304,-0.40465366840363,0.5235034592297612,-0.12248878576317652,0.7917905340389326
455,270.202004,1.16394913196564,0.62762558460236,-0.39020723104477,0.5240413607383265,-0.12296394425995509,0.793038630972103
456,270.210337,1.03265070915222,0.60769766569138,-0.2867257297039,0.5246164847393429,-0.12286318808185814,0.796371868678502
457,270.21867,0.97084361314774,0.47381210327148,-0.35352766513824,0.5225122704797857,-0.12572798193717447,0.7921341973908091
458,270.22700299999997,0.95532125234604,0.51610124111176,-0.42348012328148,0.5217436868317276,-0.12417920998164592,0.7937539840231133
459,270.23533599999996,1.02130353450775,0.5739381313324,-0.31426101922989,0.5215984461258867,-0.12158954630092653,0.792706401980653
460,270.243669,1.00086343288422,0.52304267883301,-0.35199081897736,0.5215152429074652,-0.12402299715548162,0.792381714801399
461,270.252002,0.94212996959686,0.49599403142929,-0.33695524930954,0.5213597842625214,-0.12140565988968877,0.7934861280480213
462,270.260335,1.0965838432312,0.56528055667877,-0.33170431852341,0.5217057344864826,-0.12216690851717552,0.790767961618852
463,270.268668,1.05813670158386,0.67964804172516,-0.38874724507332,0.521169292683504,-0.12213552484706937,0.792627675192697
464,270.277001,0.99402433633804,0.62783050537109,-0.41612887382507,0.5218341885780806,-0.1219209359616653,0.7934152350133775
465,270.285334,1.11067163944244,0.60042333602905,-0.3506076335907,0.5227319561705295,-0.12400694039403161,0.7926656275379418
466,270.29366699999997,1.03590357303619,0.50980007648468,-0.44082096219063,0.5203328327256805,-0.1248061656951908,0.7959647081336193
467,270.30199999999996,1.09540557861328,0.47409388422966,-0.37010014057159,0.5245267128457827,-0.12323763905739285,0.7953560109041172
468,270.310333,1.02509438991547,0.52678233385086,-0.23001582920551,0.5232129291612275,-0.12426094133026734,0.7909132023246918
469,270.318666,1.05934083461761,0.54660785198212,-0.32314923405647,0.5220429264769264,-0.12482441201501937,0.7924568896390949
470,270.326999,1.02659296989441,0.57648676633835,-0.27026858925819,0.5231983321053643,-0.12299091232066224,0.7924611714421489
471,270.335332,0.99798178672791,0.64928245544434,-0.26114991307259,0.5228808461403357,-0.12293035886725612,0.791681785972751
472,270.343665,0.90770441293716,0.54829829931259,-0.25276127457619,0.5242530180483449,-0.1240302835192,0.7925049626097388
473,270.351998,0.96518278121948,0.4757844209671,-0.39658516645432,0.521170022536297,-0.12262015926594591,0.79356777424715
474,270.360331,0.90537351369858,0.43966832756996,-0.31100803613663,0.5221597029238326,-0.12246614816237447,0.7916357079330755
475,270.36866399999997,0.9535283446312,0.413618683815,-0.24456471204758,0.522574307967205,-0.1238784498097949,0.7922006139949876
476,270.37699699999996,0.94460171461105,0.55448412895203,-0.28830099105835,0.5243690646424581,-0.12522586754390203,0.7953641365985479
477,270.38533,0.97401958703995,0.47409379482269,-0.32847693562508,0.522018841334752,-0.1231733998473806,0.7931976415673081
478,270.393663,1.07573390007019,0.49043574929237,-0.30270904302597,0.52261226031245,-0.12648783168014183,0.7899228407412162
479,270.401996,1.04650795459747,0.64527386426926,-0.23644497990608,0.5228538415869888,-0.12506307387838572,0.7919569404757755
480,270.410329,0.99420374631882,0.48567155003548,-0.29359036684036,0.522435635936503,-0.12238950145487856,0.7907897598889407
481,270.418662,0.98890161514282,0.4749903678894,-0.33426576852798,0.5224400150532622,-0.12310115658507041,0.7886505613521653
482,270.426995,0.99789214134216,0.56435841321945,-0.31264734268188,0.5240544980886029,-0.1228785393189408,0.7897176547926296
483,270.43532799999997,1.00462877750397,0.60408610105515,-0.39627784490585,0.5250500659553368,-0.12476675364435917,0.7900329511992785
484,270.44366099999996,0.94320571422577,0.58049535751343,-0.29750934243202,0.5220713907358602,-0.1229821540871449,0.7923210397058601
485,270.451994,1.1361962556839,0.63537383079529,-0.24076099693775,0.522590364728655,-0.12562654456313774,0.7912153127242112
486,270.460327,1.0310879945755,0.74309450387955,-0.27291965484619,0.5233859042732081,-0.12176255790554794,0.7935422293993887
487,270.46866,1.11018490791321,0.63871657848358,-0.39773786067963,0.5228794350916031,-0.12304057880323775,0.7929736254166582
488,270.476993,1.19013977050781,0.87918305397034,-0.38493072986603,0.5189146800917019,-0.1210122327415306,0.7940070969717846
489,270.485326,1.38031268119812,0.80779618024826,-0.23726469278336,0.5267112595694408,-0.13066784459717448,0.7933940692823764
490,270.493659,1.34862780570984,0.79624408483505,-0.37145763635635,0.5225363556219602,-0.1154972460805153,0.7884805056513571
491,270.501992,0.90130078792572,0.89360368251801,-0.51761245727539,0.5255070024607132,-0.12737973612182038,0.7955668897044897
492,270.51032499999997,1.7774612903595,0.96878153085709,-0.46177339553833,0.5209951498070541,-0.12138102735791836,0.7900185974276795
493,270.51865799999996,1.37877583503723,0.7927605509758,-0.57506519556046,0.5232659651308642,-0.11960078258903672,0.7909907613481796
494,270.526991,1.38784325122833,0.91009932756424,-0.5261932015419,0.5224306242806571,-0.13136355244383469,0.7944700669269172
495,270.535324,1.51045870780945,0.92346996068954,-0.48538973927498,0.5212431051293194,-0.12581167172412447,0.7887782855909694
496,270.543657,1.28359317779541,0.90561681985855,-0.54819583892822,0.5235676862755602,-0.1235660971427449,0.7902263621894683
497,270.55199,1.38681864738464,0.93538051843643,-0.52662867307663,0.5225406860818662,-0.12572901589529897,0.7903797772465918
498,270.560323,1.57879734039307,0.88930058479309,-0.61763602495193,0.5221248646171724,-0.12401359421866325,0.792567827263657
499,270.568656,1.65489709377289,1.05912292003632,-0.61520266532898,0.5212179495363817,-0.1271161984424204,0.7912096198724244
500,270.57698899999997,1.77323484420776,1.11135017871857,-0.60480326414108,0.5244126125257846,-0.12664549204767958,0.7885758730829979
501,270.58532199999996,1.68581366539001,1.15837824344635,-0.78973811864853,0.5231923959693132,-0.12355688883333775,0.7929561089496223
502,270.593655,1.67479956150055,1.05881559848785,-0.85410660505295,0.5235279336267591,-0.12346542611414081,0.7928227891727366
503,270.601988,1.86559998989105,1.01975393295288,-0.77001518011093,0.5254359634555112,-0.12438934676501223,0.7882351777991469
504,270.610321,2.3346734046936,1.14459776878357,-0.88691848516464,0.5237930648180907,-0.12592465293650715,0.7880123294129663
505,270.618654,1.96897900104523,1.12756419181824,-0.93320339918137,0.524691902861303,-0.12558719333337243,0.7915648148984326
506,270.626987,2.01103782653809,1.20594394207001,-0.97569757699966,0.5248291638432714,-0.12877701496591326,0.7930447617355653
507,270.63532,2.3105194568634,1.20484244823456,-0.8381233215332,0.5206475939069479,-0.12688505406282347,0.7886155770749459
508,270.643653,2.29983806610107,1.31157696247101,-0.9513127207756,0.5227670377614551,-0.12495439879748264,0.7895264333608203
509,270.65198599999997,2.42163395881653,1.37189853191376,-0.9830487370491,0.5250772164792429,-0.12493877994770917,0.7918490682329449
510,270.660319,2.46859741210938,1.56611847877502,-1.02770709991455,0.5227623180467255,-0.12760836250927957,0.7911734678307356
511,270.668652,2.51380681991577,1.6438319683075,-1.15600883960724,0.5265105987081724,-0.1256355095882806,0.7898541372649519
512,270.676985,2.09565448760986,1.55966353416443,-1.14435434341431,0.5247072297699602,-0.12724912896448265,0.7922358902133244
513,270.685318,2.44784998893738,1.39345276355743,-1.05611336231232,0.526060522819052,-0.12872790803714693,0.7938538765420714
514,270.693651,2.14581990242004,1.2646005153656,-1.11347639560699,0.5243728598769826,-0.12655492948026123,0.7840534132354112
515,270.701984,1.91472804546356,1.45012414455414,-1.04910778999329,0.5247438197233234,-0.1299390622547694,0.7891633072677927
516,270.710317,2.29000210762024,1.26800692081451,-0.85956245660782,0.5283615540484989,-0.12751512381495306,0.7905875906652335
517,270.71864999999997,2.15296602249146,1.19523704051971,-0.95605134963989,0.5258252669353878,-0.1264492103031704,0.7887648076427224
518,270.72698299999996,2.0289421081543,1.5146210193634,-0.94421762228012,0.5249899260851806,-0.1275280178809653,0.7887264660426551
519,270.735316,1.96650731563568,1.27475655078888,-0.99891668558121,0.5267418160730479,-0.13004452598338265,0.7905969327809856
520,270.743649,2.10939621925354,1.26155233383179,-0.91481238603592,0.5255831990923203,-0.1286992248223755,0.7872271051212234
521,270.751982,1.77118587493896,1.24462127685547,-0.91035544872284,0.5268389838082449,-0.12932643598439694,0.789233713733907
522,270.760315,1.77131414413452,1.00646018981934,-0.90697455406189,0.5261203220912387,-0.13140571360685407,0.7903073758495102
523,270.768648,1.68279123306274,0.88730269670486,-0.82034701108932,0.5252930582786092,-0.12843174593789286,0.790280273982457
524,270.776981,1.65131115913391,0.94731682538986,-0.826904296875,0.5270752128289673,-0.1274422115209153,0.7888465511555571
525,270.78531399999997,1.69237089157104,0.95395088195801,-0.84875327348709,0.5238995260121867,-0.12850284576416018,0.7907625607081826
526,270.79364699999996,1.61564338207245,0.8793238401413,-1.00488483905792,0.5263167498063072,-0.1299294890189653,0.7930832979630449
527,270.80198,1.58449649810791,0.82976031303406,-0.89768922328949,0.5273946937249632,-0.1308851825947663,0.7895911469751479
528,270.810313,1.5998010635376,0.77603453397751,-0.88054060935974,0.5271701423489317,-0.13105455709963468,0.7872315328948347
529,270.818646,1.40492796897888,0.64038151502609,-0.87354785203934,0.5271362285224754,-0.1305312039900796,0.7923416215546275
530,270.826979,1.45520865917206,0.59904009103775,-0.83661210536957,0.5255701103988959,-0.12849476872658264,0.7891039459072816
531,270.835312,1.36440622806549,0.59312319755554,-0.79004544019699,0.5287008869404694,-0.13160535267421225,0.7882763901535346
532,270.843645,1.22470617294312,0.58428633213043,-0.759974360466,0.5266258667926398,-0.13145610994222243,0.7931780328555978
533,270.851978,1.35823309421539,0.44276759028435,-0.6608983874321,0.5272229350343041,-0.13153786561927042,0.7880367551531112
534,270.86031099999997,1.29693818092346,0.42816755175591,-0.63807618618011,0.527655737740653,-0.1311889959841357,0.7926430994150592
535,270.86864399999996,1.0618509054184,0.38726159930229,-0.66430521011353,0.5285870785615877,-0.1318918563881694,0.7917540413992744
536,270.876977,1.0807797908783,0.23567655682564,-0.55229413509369,0.5277761634515254,-0.12908400321493368,0.7910861774366724
537,270.88531,1.10291051864624,0.29520404338837,-0.5691482424736,0.5252522351790448,-0.13056420550054387,0.7898694641736091
538,270.893643,1.14624977111816,0.22924740612507,-0.51922619342804,0.5251449468184489,-0.13121890778444284,0.7904409875675122
539,270.901976,1.06000649929047,0.41830605268478,-0.47926792502403,0.5252552032470703,-0.1290789064095949,0.7880930511318908
540,270.910309,1.06359267234802,0.31636139750481,-0.49911895394325,0.5252500456206654,-0.13115101931046427,0.7911270491930907
541,270.918642,1.00102984905243,0.30984255671501,-0.37585043907166,0.5249303700972571,-0.13239839855505509,0.7883907337577979
542,270.92697499999997,1.03769683837891,0.30883088707924,-0.43784976005554,0.525983596334652,-0.13175025278208163,0.7918627894654561
543,270.93530799999996,0.83793133497238,0.2816541492939,-0.38995110988617,0.5271900916586112,-0.13154152704744898,0.7877484146429571
544,270.943641,0.76518678665161,0.26369851827621,-0.43954026699066,0.5262748075991265,-0.1323414578729745,0.788117768813153
545,270.951974,0.78867518901825,0.14057092368603,-0.35396313667297,0.5261266474821132,-0.13299033349874081,0.789394330005256
546,270.960307,0.69974255561829,0.22648106515408,-0.46997001767159,0.525908421496956,-0.13035983455424388,0.7922809951159417
547,270.96864,0.80552929639816,0.21731115877628,-0.43541637063026,0.5266499519348142,-0.13154881341116734,0.7895687648228235
548,270.976973,0.67606210708618,0.24298942089081,-0.32395604252815,0.5258623921141337,-0.13247722265671735,0.7866850191233111
549,270.985306,0.71695518493652,0.1435165554285,-0.30240163207054,0.5264003422795509,-0.1309276843557551,0.7911956553556478
550,270.993639,0.50515115261078,0.08591014146805,-0.29922550916672,0.5273287636893133,-0.13180646361136938,0.7913255691528316
551,271.00197199999997,0.44142290949821,0.12148831039667,-0.13416737318039,0.5261551117410469,-0.1296358205834214,0.7894798200957632
552,271.01030499999996,0.25874221324921,-0.06222978234291,-0.11739005148411,0.525529627897301,-0.1320115765746755,0.7906841258613428
553,271.018638,0.35177305340767,-0.10682415962219,-0.1441312879324,0.5267149088334061,-0.12999270643506733,0.7893760836854276
554,271.026971,0.32410970330238,-0.01835259795189,-0.16201002895832,0.523622425235048,-0.1317313009378857,0.7899498452945631
555,271.035304,0.22331771254539,0.16016581654549,0.02375720441341,0.5249464268587072,-0.13152910738575202,0.7900862304531796
556,271.043637,0.11169087141752,0.22417578101158,0.06960666924715,0.5261981730558438,-0.1320684807641163,0.7939662738722194
557,271.05197,0.1764180213213,0.20265983045101,0.07723972201347,0.5282323214472561,-0.12950222102963163,0.7890111086319908
558,271.060303,-0.1556833088398,0.04100838676095,0.12903170287609,0.527661625219851,-0.13289546479984182,0.7937065922484102
559,271.06863599999997,-0.2202055901289,0.00025614237529,0.15792456269264,0.5242530180483449,-0.13165318236059081,0.7922868339382867
560,271.07696899999996,-0.34051564335823,-0.10761821269989,0.23361463844776,0.524647917066302,-0.1320765213090551,0.7896775128890061
561,271.085302,-0.4392072558403,-0.06117960065603,0.23694443702698,0.527009039509053,-0.1291153868850398,0.7931167252209724
562,271.093635,-0.4538586139679,-0.31673285365105,0.3822540640831,0.5239114469411418,-0.1303072851531357,0.7918737372573541
563,271.101968,-0.760089635849,-0.36408072710037,0.37112465500832,0.5271717966819296,-0.13159768921988366,0.7901014600481305
564,271.110301,-0.58864068984985,-0.36791002750397,0.58750087022781,0.5258041012043857,-0.1296124288014,0.7909366062709264
565,271.118634,-0.99770003557205,-0.47029012441635,0.67341107130051,0.5250902078589611,-0.12801909933284797,0.7922831846743214
566,271.126967,-1.10379421710968,-0.62792015075684,0.77794271707535,0.525785757570851,-0.1300810186230408,0.7928415707179478
567,271.1353,-1.13513314723969,-0.48062548041344,0.97889918088913,0.5267886239655163,-0.12815339224679081,0.7892206736973357
568,271.14363299999997,-1.45720660686493,-0.67490941286087,1.0339697599411,0.5255626659004051,-0.12827389094294286,0.7903952987826601
569,271.151966,-0.76235640048981,-1.07401764392853,1.50054574012756,0.525614193507603,-0.12473984640471836,0.7894417217799591
570,271.160299,0.14839605987072,-1.25541758537292,1.85648131370544,0.5240184920174734,-0.12350967952183264,0.7861464850756592
571,271.168632,-1.74320244789124,-1.17821633815765,1.63494384288788,0.5231741009926305,-0.12878695312811428,0.792971873769955
572,271.176965,-0.27537867426872,-1.24207270145416,2.20770382881165,0.5271366177772989,-0.13332340182090305,0.7982870510646275
573,271.185298,-0.55331867933273,-1.13661873340607,2.32173824310303,0.5252856624369714,-0.1222340306457204,0.7887289475421521
574,271.193631,-1.0190623998642,-1.13536381721497,2.4618992805481,0.5232874714598367,-0.1294472996069459,0.7918603079659601
575,271.201964,-0.4300117790699,-0.70837450027466,2.99406051635742,0.5299858171112682,-0.13257021806677957,0.798559724068155
576,271.21029699999997,-2.21985769271851,-0.65391862392426,3.29123711585999,0.5128582643002877,-0.11875038244286325,0.7847817576661398
577,271.21862999999996,0.58306968212128,-0.62348890304565,3.44530701637268,0.5226237433297296,-0.13729956685280306,0.7989892667653612
578,271.226963,0.10789997130632,-0.40008157491684,3.52645301818848,0.5276575867010622,-0.12341416611963367,0.790728306283756
579,271.235296,0.022476490587,-0.42380028963089,3.69752979278564,0.5226147418119469,-0.13276171927549388,0.7942836138666888
580,271.243629,0.26606783270836,-0.14288899302483,3.99137616157532,0.5256405655218632,-0.13342513113605714,0.7967253607146592
581,271.251962,0.33212700486183,-0.50930070877075,4.51157665252686,0.5272311580424408,-0.13307926606158774,0.7952350986247163
582,271.260295,-0.69760370254517,0.25944662094116,5.39964771270752,0.523683392271704,-0.1369545046164061,0.7973311871898418
583,271.268628,-0.51238715648651,-0.56939160823822,6.31832695007324,0.5313606651461856,-0.1323870128514816,0.801902303890306
584,271.276961,-0.22222912311554,0.47944727540016,7.76811933517456,0.5083648039370163,-0.1559812317089163,0.8044954222075795
585,271.28529399999996,-2.19534492492676,1.66244089603424,10.02501583099365,0.5260294310900632,-0.1477693294992255,0.8175298145839142
586,271.293627,-1.60526978969574,2.22300839424133,12.67590999603271,0.5208320033793551,-0.1487509206849704,0.8065443622822662
587,271.30196,-2.63450121879578,4.2646427154541,16.14764022827148,0.5364705591785663,-0.11295650686536529,0.794459703017254
588,271.310293,0.49080741405487,5.45099401473999,24.34153938293457,0.5543462111025438,-0.042928445095918366,0.7984630915583397
589,271.318626,10.2564525604248,8.40171051025391,36.45303344726562,0.5443835745052418,-0.039164816238441834,0.7933312532853101
590,271.326959,18.20685958862305,12.85187149047852,48.13875198364258,0.4986128515126754,-0.07286549222712652,0.8009169053058235
591,271.335292,25.99938774108887,20.92858123779297,59.82717132568359,0.5019993684729754,-0.11324386207424898,0.803226938053053
592,271.343625,26.98954582214355,25.6995677947998,69.13692474365234,0.5835717064993724,-0.2072989697359051,0.7992357137251878
593,271.35195799999997,30.87424850463867,23.28648376464844,74.99462890625,0.6132625073802714,-0.19107773595926733,0.7846050846333408
594,271.36029099999996,34.85902786254883,22.26140785217285,81.68012237548828,0.6038929491626969,-0.17454490369679998,0.7804196221487867
595,271.368624,43.88311386108398,20.78523826599121,87.75829315185547,0.6287582066594336,-0.21486511035841324,0.7905239475016693
596,271.376957,44.73458862304688,18.24217796325684,94.05541229248048,0.669731607242506,-0.2973233923620112,0.8311186031419406
597,271.38529,44.86403274536133,12.19045734405518,100.533447265625,0.6816965706494388,-0.27675030182818977,0.7698361727656152
598,271.393623,43.9256591796875,5.08502244949341,106.07318878173828,0.6963336224458653,-0.3374949280096561,0.7738290027696255
599,271.401956,38.02085876464844,-1.27951061725616,110.52034759521484,0.6714673918120714,-0.34942142817438876,0.7431055575001
600,271.410289,32.29164886474609,-6.41658353805542,111.68474578857422,0.6495902976211234,-0.3787419747333133,0.7450356775400592
601,271.41862199999997,24.43658447265625,-11.7491569519043,106.43704986572266,0.562952975837552,-0.5811247533681438,0.7654564721243724
602,271.42695499999996,6.66017580032349,-14.10183525085449,92.11446380615234,0.5263410295758928,-0.7542066184841857,0.7810332823772815
603,271.435288,-9.46938514709473,-16.38981056213379,72.17355346679688,0.5052615185173194,-0.9002911314672356,0.7847249264619786
604,271.443621,-29.28886985778809,-19.10324668884277,47.72537231445312,0.44442960194178976,-0.9142306386208051,0.724740077038201
605,271.451954,-36.10801696777344,-22.35208702087402,19.59762954711914,0.3829232527285204,-0.793727612008854,0.6409677194089306
606,271.460287,-33.4036750793457,-23.31133079528809,-9.25113201141357,0.35563206186099894,-0.6893261598081,0.6082940588192061
607,271.46862,-28.50101852416992,-22.71143531799316,-35.55663299560547,0.365441259072751,-0.5722062928336009,0.5968150800588182
608,271.476953,-21.69256591796875,-22.32051467895508,-54.96345138549805,0.3926921377376632,-0.4698471633755428,0.5934028236233458
609,271.485286,-12.01735973358154,-21.6546459197998,-69.39766693115234,0.42145077063112857,-0.3491136005946571,0.6193409160691867
610,271.49361899999997,0.74149805307388,-22.16452407836914,-79.88207244873047,0.45291263229992956,-0.23592605882761428,0.6356291381680235
611,271.50195199999996,12.51127338409424,-22.87847900390625,-85.90865325927734,0.47535871972843063,-0.2046062265123643,0.6760071248424295
612,271.510285,22.65969657897949,-24.58367538452148,-88.99568939208984,0.5065642570962714,-0.12391388416290305,0.7142560822623112
613,271.518618,25.70052337646484,-20.56134414672852,-90.9660186767578,0.35776474037948874,0.016462644752190815,0.7096192301536092
614,271.526951,42.55679702758789,-12.63315582275391,-96.33266448974608,0.31401875067730306,-0.21756031075302448,0.6835444606080346
615,271.535284,37.65175247192383,9.44946765899658,-98.97669219970705,0.531765052250453,-0.011672704499594897,0.701086083237006
616,271.543617,-6.69010019302368,0.935387134552,-89.1083984375,0.835166269419145,-0.4769199235098704,1.2315217816099826
617,271.55195,-85.05229187011719,9.80426120758057,-68.55152130126953,1.019263462144501,0.06780227228086837,1.1084913720889968
618,271.56028299999997,-56.56305313110352,-9.26287174224854,-65.59707641601562,0.7672351720381755,0.641375609806606,0.6613975155110265
619,271.56861599999996,-74.1369857788086,-2.31523203849792,-83.3803939819336,0.45798150860533465,0.7325600604621735,0.6507278948414081
620,271.576949,-75.16427612304688,16.6859130859375,-91.36221313476562,0.6184361418899225,1.1491984737162684,0.8957105753373122
621,271.585282,-63.01115417480469,12.84071636199951,-81.06917572021484,0.7612268778742571,1.509134915410256,1.019897558251206
622,271.593615,-34.92692565917969,7.66534376144409,-52.885009765625,0.6195004132329204,1.6332270174610366,0.9297579161974846
623,271.601948,-3.36138272285461,8.79890251159668,-15.18496704101562,0.6579985423963898,1.5440545763288223,0.9065671842925397
624,271.610281,43.14463043212891,-2.40706372261047,-0.72260445356369,0.5310476069547694,0.6697044567186009,0.6573954407049682
625,271.618614,34.22994995117188,-1.39469647407532,-6.85062313079834,0.41809223136123363,-0.7389716226227429,0.8098573587378672
626,271.626947,1.65001785755157,8.16047763824463,-2.79329633712769,0.7166445985132336,-0.9567634426817602,0.9855341424747387
627,271.63527999999997,-19.76461601257324,-1.76906049251556,-0.68192803859711,0.4532519651918999,0.05046850260423163,0.6967355767074898
628,271.64361299999996,1.32398688793182,6.39323663711548,-0.50946712493896,0.5075843966737081,0.13310830203854285,0.8383362633841378
629,271.651946,9.61722278594971,1.43115699291229,-2.26677012443542,0.5407991701242877,-0.1152419800661051,0.8058762550354
630,271.660279,-2.68383407592773,3.9799656867981,-3.34739661216736,0.5099403614900551,-0.16450725039657244,0.7728083279668071
631,271.668612,1.41087055206299,3.15270256996155,-3.36578750610352,0.5351545859356316,-0.06604484149387857,0.7934203439829296
632,271.676945,1.75538194179535,2.82135701179504,-3.64851760864258,0.5080465881191959,-0.0638460079017949,0.7812689761726224
633,271.685278,3.21515011787415,3.48285746574402,-3.92739295959473,0.5199368632569602,-0.12316987222554693,0.8016987722747183
634,271.693611,1.73590219020844,3.02359390258789,-3.65193700790405,0.5319863436173419,-0.1133783982724561,0.7953714351264796
635,271.70194399999997,2.20204305648804,2.88782596588135,-2.76882243156433,0.535272384176449,-0.1383089167731153,0.8025729412935214
636,271.71027699999996,2.21464514732361,2.08279585838318,-2.12247228622437,0.5298483615018887,-0.1554382090665857,0.7937865354576887
637,271.71861,1.26420342922211,1.88490045070648,-1.13875770568848,0.5223829892216898,-0.14865970125003775,0.7954245684098223
638,271.726943,1.16274535655975,1.39174938201904,-0.47445246577263,0.5244831163056041,-0.12568807115360203,0.7994171064727162
639,271.735276,1.06005787849426,1.68467378616333,-0.12968485057354,0.5211608263911031,-0.1191954223477112,0.7973290949451683
640,271.743609,1.2404590845108,1.97229611873627,0.0696579143405,0.5257627915362918,-0.1326943416984714,0.7977433593905703
641,271.751942,0.42380028963089,1.6933571100235,0.45300051569939,0.5217347826276509,-0.12505011899130714,0.7935088994551673
642,271.760275,0.33156344294548,1.63026916980743,0.6229253411293,0.5301127628404265,-0.11227802354462245,0.7992263229525816
643,271.768608,0.2011101692915,1.40583741664886,0.78654909133911,0.5231173184453224,-0.1153739009584704,0.7912292285841336
644,271.77694099999997,0.30269619822502,1.49256694316864,0.91912829875946,0.520661217825753,-0.11643469333648672,0.7888722419738764
645,271.785274,0.45580530166626,1.65843200683594,1.13214910030365,0.5202694328463806,-0.11601915164869692,0.795484270368304
646,271.793607,0.25007179379463,2.05775809288025,1.28580904006958,0.5235407303790652,-0.11416181009642959,0.7994211936483581
647,271.80194,0.11125542223454,1.82634603977203,1.37595820426941,0.5297845237109122,-0.10374204236633877,0.7935868477334785
648,271.810273,0.6317366361618,1.73175275325775,1.15880072116852,0.5326671503028092,-0.10471267359597346,0.7929619477719673
649,271.818606,0.3608917593956,1.5198460817337,0.92425107955933,0.5299571582249234,-0.09858319953996325,0.793453673927151
650,271.826939,0.89581954479218,1.58057773113251,0.43427658081055,0.5295930103379857,-0.09861991721756631,0.7954042298453193
651,271.835272,1.26056611537933,1.57468616962433,0.15090623497963,0.5225396156311031,-0.10718188723739284,0.7923478496317958
652,271.84360499999997,1.53389585018158,1.88100695610046,-0.13337333500385,0.5220074556311786,-0.10801961227339184,0.7986039531474214
653,271.85193799999996,1.52685177326202,2.13755893707275,-0.29538336396217,0.525603197058853,-0.10777281255138163,0.793842588152204
654,271.860271,1.79421305656433,1.94803953170776,-0.47988274693489,0.529610234863904,-0.10512047884415611,0.7928126198904856
655,271.868604,1.85143530368805,1.96297264099121,-0.82577735185623,0.5277371406555172,-0.10530237032442653,0.792232970802151
656,271.876937,1.9992550611496,1.73362267017365,-1.08143293857574,0.5302829645117938,-0.11089431996248163,0.7948221965711949
657,271.88527,1.92763781547546,1.50475943088531,-1.19054973125458,0.5248221572564571,-0.1085899314101857,0.7925365895641091
658,271.893603,2.02648329734802,1.3181084394455,-1.0708030462265,0.5287228311811173,-0.11459541564084999,0.7920907954780417
659,271.901936,1.7531406879425,1.23044371604919,-1.01907515525818,0.5282566498736948,-0.11350081891429693,0.7888579368591305
660,271.91026899999997,1.5979825258255,1.17215859889984,-0.98791545629501,0.5283420426504949,-0.11291958847824386,0.7903924280283398
661,271.91860199999996,1.49631977081299,1.00994384288788,-0.79901051521301,0.5281492641993928,-0.11391310059294388,0.7922069880427143
662,271.926935,1.24153482913971,0.79829317331314,-0.57450169324875,0.5253514951589153,-0.11729568851237346,0.7936466956625183
663,271.935268,1.17058348655701,0.81530117988586,-0.40946918725967,0.5300906239723673,-0.1146410922614898,0.7932116060840836
664,271.943601,0.89087599515915,0.59729838371277,-0.08614067733288,0.5300993822058857,-0.11492209775107244,0.7913620617924907
665,271.951934,0.58125102519989,0.50749486684799,-0.02597283571959,0.5320189923656234,-0.11345722237411837,0.7928152960173938
666,271.960267,0.52513027191162,0.18759866058826,0.01937717013061,0.5298176590277224,-0.11022020359428569,0.7925357137407572
667,271.9686,0.49334302544594,-0.01312729530036,-0.00742812780663,0.53066939723735,-0.10769555763322447,0.7914395235022724
668,271.976933,0.43809309601784,-0.21553099155426,-0.10363519191742,0.5287921671964683,-0.11028151122891122,0.7928058079310826
669,271.98526599999997,0.54088294506073,-0.40330889821053,-0.18470424413681,0.5297614603626489,-0.10844585846881429,0.7943078936362754
670,271.99359899999996,0.52267128229141,-0.50159072875977,-0.19605134427547,0.5265485023965643,-0.11111795902252244,0.7940276301636989
671,272.001932,0.70882272720337,-0.48313567042351,-0.27003806829453,0.5243041077438663,-0.10974285553912753,0.792343762456154
672,272.010265,0.89581942558289,-0.28374168276787,-0.32209897041321,0.5258536338806152,-0.10660144747519999,0.7928385053362162
673,272.018598,0.92755550146103,-0.06292136758566,-0.31182765960693,0.5266645489906775,-0.11022385285825102,0.7913350572391428
674,272.026931,0.95053142309189,0.10109937936068,-0.4348272383213,0.5238187556364101,-0.10975891230057654,0.7929729442207183
675,272.035264,1.22409152984619,0.2939233481884,-0.5627703666687,0.5262981628885072,-0.1078955251343398,0.7924744061061315
676,272.043597,1.30198431015015,0.36285120248795,-0.7057746052742,0.5211357194550182,-0.10937864683112346,0.7914642411835336
677,272.05192999999997,1.43561375141144,0.50606042146683,-0.75510764122009,0.5255898650811642,-0.10838526852276836,0.7872777082482163
678,272.06026299999996,1.43878996372223,0.51120883226395,-0.83707308769226,0.5249450158099734,-0.10984333194032041,0.7929569361161214
679,272.068596,1.6736980676651,0.46008288860321,-0.95049297809601,0.5260257331692438,-0.11211268755854387,0.7883480130409704
680,272.076929,1.82799816131592,0.54051154851913,-0.93379265069962,0.5262851228519357,-0.11113022054944693,0.7882391190042306
681,272.085262,1.92510163784027,0.74224919080734,-1.07123839855194,0.5258218122988326,-0.11462587483075204,0.7930127455263724
682,272.093595,1.69600808620453,0.52053242921829,-0.93753218650818,0.5258505684988836,-0.11446656013021632,0.7952646333344132
683,272.101928,1.7788702249527,0.67598527669907,-0.98330479860306,0.5266690740779959,-0.10911684863421428,0.7897371661906336
684,272.110261,1.60118424892426,0.6391007900238,-1.10878896713257,0.5271181281732051,-0.1085372968595857,0.7904933909980623
685,272.118594,1.70750892162323,0.30985537171364,-1.02579879760742,0.5322330338614326,-0.10951691744278876,0.7883888361405357
686,272.12692699999997,1.58755743503571,0.01168009079993,-1.30637717247009,0.5265748744108234,-0.10434807563314591,0.7933380165878611
687,272.13525999999996,1.50141680240631,0.01534292660654,-1.45811593532562,0.5284487471288561,-0.11246105846093672,0.7919659906504102
688,272.143593,1.02112424373627,0.19871525466442,-1.62396812438965,0.5282430259548887,-0.11068188414281735,0.7916782340224908
689,272.151926,1.480464220047,-0.26076570153236,-1.43224549293518,0.5276288791578643,-0.11701446406695304,0.7949847591166591
690,272.160259,1.28566813468933,-0.28922313451767,-1.33611536026001,0.526174671795903,-0.11706414271374183,0.7887121609279092
691,272.168592,0.48312282562256,-0.49698016047478,-1.34280049800873,0.5225042420990612,-0.11418273254316631,0.7865879000449663
692,272.176925,1.88511788845062,-0.28906944394112,-0.99731576442719,0.531150467541753,-0.12382363786502755,0.7991939661454184
693,272.185258,1.71083867549896,-0.52612912654877,-0.8869696855545,0.5226542511764837,-0.11321994723105919,0.7878107927283459
694,272.19359099999997,1.13732314109802,-0.41833168268204,-0.93864643573761,0.526806140432552,-0.11490750069520918,0.7891615069642357
695,272.20192399999996,1.1500791311264,-0.11867074668407,-0.98162710666656,0.5255412568851398,-0.11627675319204488,0.797296786794857
696,272.210257,1.06843364238739,-0.21258533000946,-0.91558068990707,0.5256536542152866,-0.11002240132312346,0.7909730502537315
697,272.21859,1.38126039505005,-0.33284416794777,-0.92426401376724,0.5229612759181428,-0.11867423446811019,0.7898988042558939
698,272.226923,1.51679837703705,-0.20476022362709,-0.90045565366745,0.5258037606064153,-0.11441635842226021,0.7952037149546102
699,272.235256,1.27676701545715,-0.10670889914036,-0.94556224346161,0.5267659498720755,-0.11173396694416939,0.7942099960482846
700,272.243589,1.15653383731842,-0.10517204552889,-0.8508408665657,0.5270659680269204,-0.11251494592549896,0.791964239003707
701,272.251922,1.30035781860352,-0.31866666674614,-1.07563138008118,0.5269267121139837,-0.11166148039759387,0.7907988587204295
702,272.260255,1.33767783641815,-0.34507501125336,-1.1753476858139,0.5258345603942867,-0.11219688824244899,0.7917768128064213
703,272.26858799999997,1.29103422164917,-0.29976341128349,-1.09537982940674,0.5260487965175081,-0.112997901682951,0.7922518983179203
704,272.276921,1.19335436820984,-0.3383512198925,-1.12945961952209,0.5234260461768326,-0.11417981313199388,0.7946312184236489
705,272.285254,1.32908415794373,-0.38801726698875,-1.16834223270416,0.5241672360167213,-0.11566902909960101,0.7896888499357264
706,272.293587,1.35756719112396,-0.22754403948784,-1.09129440784454,0.5228344275026907,-0.11506771554752245,0.7921417878598581
707,272.30192,1.33607697486877,-0.19619224965572,-0.99557417631149,0.5229319358358581,-0.11793505172340203,0.7939780001737632
708,272.310253,1.25938785076141,-0.23207777738571,-0.99273085594177,0.5234282843920652,-0.11383895971337142,0.7924364537608867
709,272.318586,1.31814694404602,-0.20474736392498,-0.95728081464767,0.5240471995606714,-0.1141053681470908,0.7912606122542397
710,272.326919,1.22675538063049,-0.25500249862671,-0.83110499382019,0.5236297237629796,-0.11540893389254184,0.7934057469270663
711,272.33525199999997,1.23023879528046,-0.04944827780128,-0.92331629991531,0.5221757596852826,-0.11597313443008775,0.7883345350927233
712,272.34358499999996,0.96510595083237,-0.2383020222187,-0.79360574483871,0.5227290367593571,-0.11105298995971631,0.7952312060764857
713,272.351918,1.31814706325531,-0.04965319484472,-0.86970573663712,0.5222947256905693,-0.11857149552325814,0.7935691366390305
714,272.360251,1.31217885017395,-0.10454450547695,-0.77872401475906,0.5219020648878449,-0.11772776136592958,0.7918087803587622
715,272.368584,1.16966116428375,0.00276633701287,-0.7262915968895,0.5218684916593591,-0.11773433004106837,0.7919605897397408
716,272.376917,1.1859518289566,0.05156145617366,-0.73377096652985,0.5212306003181306,-0.11583226067679284,0.7935320601171377
717,272.38525,1.22765183448792,0.15629805624485,-0.64074003696442,0.5217503041637183,-0.11850799833025202,0.7896717227235132
718,272.393583,1.12037932872772,0.29548579454422,-0.6817484498024,0.5223378356622194,-0.11738179897775407,0.7934904585079275
719,272.40191599999997,1.17299103736877,0.1666462123394,-0.62275892496109,0.5243931497846326,-0.11640304205368977,0.7916949233230275
720,272.41024899999996,1.12801253795624,0.12860907614231,-0.502192735672,0.5242194448198592,-0.11470750886566734,0.7954173185387439
721,272.418582,1.00975155830383,0.05727343261242,-0.52194130420685,0.523691761250399,-0.116528564569901,0.794673549885652
722,272.426915,0.95170968770981,0.19743449985981,-0.56241172552109,0.5235238951079704,-0.11631398784871019,0.7937706733236509
723,272.435248,0.88216704130173,0.13403929769993,-0.56448650360107,0.5240311914560745,-0.1190211213364898,0.7937568061205806
724,272.443581,0.98073053359985,0.05225303769112,-0.66415148973465,0.5236749746361561,-0.11686797044715103,0.7944524044893224
725,272.451914,0.83590769767761,0.20455527305603,-0.55155128240585,0.5225049719518541,-0.11657455746008467,0.7921488917603785
726,272.460247,0.93890255689621,-0.02142630703747,-0.62767678499222,0.5228961730489928,-0.11453526360648061,0.7942765099661693
727,272.46858,1.09196043014526,-0.07727814465761,-0.59395563602448,0.5202795534717796,-0.11702269923930306,0.7903198320038468
728,272.47691299999997,1.19003736972809,-0.36433684825897,-0.72584331035614,0.5229421537749622,-0.11802263405858264,0.7914335873662204
729,272.48524599999996,1.23052072525024,-0.27692827582359,-0.70393037796021,0.5204824525482795,-0.1159541582574653,0.7877367369982662
730,272.493579,1.38339912891388,-0.29461494088173,-0.68085199594498,0.5221699208629377,-0.11687672868066938,0.7930882609620388
731,272.501912,1.24532580375671,-0.27972027659416,-0.7538526058197,0.5221670501086173,-0.11795913686557652,0.7945721976611081
732,272.510245,1.32713747024536,-0.47887092828751,-0.83087456226349,0.5261463535075286,-0.11387837176420203,0.7938889094761439
733,272.518578,1.35167586803436,-0.58791065216064,-0.83592051267624,0.5248370949102907,-0.1142281415511153,0.7923147143149867
734,272.526911,1.29911553859711,-0.86129140853882,-0.98476481437683,0.5260692810525703,-0.11362216910537448,0.7941461582573092
735,272.535244,1.1784086227417,-1.03942561149597,-0.94448655843735,0.5258646303293653,-0.11468431171105815,0.7937777285673183
736,272.54357699999997,1.27430808544159,-1.40307092666626,-0.94932758808136,0.5248293098138306,-0.11672069831770307,0.7910755702427459
737,272.55190999999996,1.24066388607025,-1.42593145370483,-1.04185891151428,0.5231641263377907,-0.11647912920737755,0.792625145036347
738,272.560243,1.42329335212708,-1.65054309368134,-1.20368993282318,0.5214584117033041,-0.1195234546856,0.7944396077370153
739,272.568576,1.12263357639313,-1.74982380867004,-1.05899500846863,0.5218898520177724,-0.11855638757043979,0.7968496789737622
740,272.576909,1.13910353183746,-1.75074589252472,-1.13050997257233,0.5224840981619694,-0.11547679803809388,0.7952779166552489
741,272.585242,1.27387273311615,-1.87872719764709,-1.1307532787323,0.5201261870715082,-0.11939243394501325,0.7946020729687744
742,272.593575,1.13182902336121,-1.84431457519531,-1.02024066448212,0.5225893915915979,-0.1201701529172,0.7921724416771714
743,272.601908,1.11876583099365,-1.78788650035858,-1.18524754047394,0.5203665032678724,-0.11333812256248672,0.7980003162306184
744,272.610241,1.12477219104767,-1.64307630062103,-1.10170662403107,0.5167612250970337,-0.11817623157890508,0.7929674946531958
745,272.61857399999997,1.40688753128052,-1.53867268562317,-1.04799365997314,0.5150698155772928,-0.11992381543529285,0.7934001513889857
746,272.62690699999996,1.38663935661316,-1.1522433757782,-1.12969017028809,0.5185438175590673,-0.11960512521315611,0.7933367515096856
747,272.63524,1.53839087486267,-0.86460846662521,-1.20097458362579,0.5176151042081867,-0.1151541909393,0.7932439628912479
748,272.643573,1.61734676361084,-0.68473249673843,-1.14167761802673,0.5197937634526469,-0.12177270285937243,0.7971240549671408
749,272.651906,1.49283611774445,-0.75811737775803,-1.05858516693115,0.5196208369975184,-0.11501422950199694,0.7935932217812051
750,272.660239,1.54132378101349,-0.59134298563004,-1.07802629470825,0.5190902340168857,-0.12323317479114183,0.7997279264488999
751,272.668572,1.3810042142868,-0.47858917713165,-1.07738590240479,0.5195649302735622,-0.12220344981368672,0.7938135886678886
752,272.676905,1.40976893901825,-0.33281856775284,-0.88604760169983,0.5197655424779775,-0.12044581831717958,0.7949098762200806
753,272.68523799999997,1.3681972026825,-0.40512755513191,-0.94127190113068,0.5172519294583071,-0.12227850300925101,0.7961421596760653
754,272.69357099999996,1.38622951507568,-0.23586869239807,-0.95410454273224,0.5154495823140051,-0.12473483474887141,0.7925270041640928
755,272.701904,1.51980769634247,0.10074078291655,-0.77516359090805,0.514799429445851,-0.12463444349717143,0.7941412439151683
756,272.710237,1.64016914367676,0.44207608699799,-0.85423469543457,0.5165226605473734,-0.11940200718081734,0.7942145697924551
757,272.71857,1.72497773170471,0.56878966093063,-0.74142962694168,0.5154771220927337,-0.12006253612284795,0.798969706710504
758,272.726903,1.69582867622375,0.6283940076828,-0.8880198597908,0.5177368436540878,-0.12095323630741632,0.7954010184930296
759,272.735236,1.69915866851807,0.7516753077507,-0.8290046453476,0.5190097069253724,-0.12217157957505204,0.7942471698838836
760,272.743569,1.55812656879425,0.68525761365891,-0.77841657400131,0.5185652752311857,-0.12033152336976938,0.7955195465866397
761,272.751902,1.67460739612579,0.69812881946564,-0.70394319295883,0.5188265625311408,-0.12153534256682141,0.7916519593219367
762,272.76023499999997,1.55746078491211,0.7692466378212,-0.78161841630936,0.5180576382851112,-0.12190131508574184,0.7943670117125214
763,272.76856799999996,1.36911916732788,0.76384210586548,-0.70743954181671,0.5193531269929846,-0.12259990585093569,0.7948521691925673
764,272.776901,1.59209132194519,0.81975799798965,-0.58067470788956,0.5175068913673867,-0.1221694386735255,0.7962296446975397
765,272.785234,1.41020441055298,1.05090081691742,-0.6969633102417,0.5159431087727449,-0.12294229196042449,0.7950821214792683
766,272.793567,1.43061912059784,1.20082092285156,-0.43288055062294,0.5155444631771163,-0.12244465399761631,0.7936982719265683
767,272.8019,1.57177901268005,1.33944511413574,-0.48482620716095,0.5170389097564071,-0.12583671783914385,0.793577943529401
768,272.810233,1.57436621189117,1.40176463127136,-0.43039602041245,0.5184383295020275,-0.11996943123486528,0.7917598315647674
769,272.818566,1.55687177181244,1.42248666286469,-0.39084762334824,0.5204912107817979,-0.12152287424827142,0.7935163439536581
770,272.82689899999997,1.51366031169891,1.33729350566864,-0.36292809247971,0.5206808751943164,-0.12241919429934794,0.7950264093827224
771,272.83523199999996,1.24668312072754,1.27425682544708,-0.31287786364555,0.5197919144922377,-0.12139439582824693,0.7941827968675265
772,272.843565,1.3103985786438,1.12580955028534,-0.4679080247879,0.5238817176040337,-0.11724060895491632,0.7949879218120958
773,272.851898,1.22785687446594,1.28801190853119,-0.44842845201492,0.5210015238547816,-0.1233335417144153,0.7934129967981458
774,272.860231,1.37337124347687,0.9565891623497,-0.38024333119392,0.5208208609600459,-0.12082175332672755,0.7916756552092887
775,272.868564,1.24934709072113,0.9237517118454,-0.26877015829086,0.5216415074406837,-0.11994365526705407,0.7927020228638939
776,272.876897,1.29552948474884,0.89526867866516,-0.39207708835602,0.5207218442644388,-0.12180634907313775,0.7944056939105602
777,272.88523,1.23374795913696,0.94680458307266,-0.28831377625465,0.5209276627521121,-0.12197421521556631,0.7930670952310367
778,272.893563,1.40469741821289,0.96998536586761,-0.44263955950737,0.51946581626425,-0.12050750304241531,0.792309118776905
779,272.90189599999997,1.48259043693542,1.12702631950378,-0.41087797284126,0.5191220069418152,-0.12247143959512549,0.7920727437856244
780,272.910229,1.4865734577179,1.22360479831696,-0.30738368630409,0.5189160424835827,-0.12115870203290714,0.7930361981294591
781,272.918562,1.62416017055511,1.30834949016571,-0.40145188570023,0.5197976073440245,-0.12429525657575918,0.7915360100415285
782,272.926895,1.44004511833191,1.374715924263,-0.39302477240562,0.5200554886642765,-0.12542995871329796,0.793326825511699
783,272.935228,1.5096390247345,1.49246466159821,-0.3519651889801,0.5209678533125898,-0.12266627379826123,0.7917600748490315
784,272.943561,1.28904926776886,1.4019695520401,-0.47616863250732,0.5232876174303949,-0.11972019867021223,0.7959396011975346
785,272.951894,1.22697305679321,1.25895237922668,-0.3254160284996,0.5206283257932082,-0.12151740035232243,0.7951499491321796
786,272.960227,1.35523629188538,1.23442685604095,-0.34750828146935,0.5211886581109489,-0.12243999510395305,0.7955447508364305
787,272.96855999999997,1.04276823997498,1.16070902347565,-0.46689626574516,0.5223604610988071,-0.1203079126319102,0.7972945972364774
788,272.97689299999996,1.04566264152527,0.95666599273682,-0.36177545785904,0.5206072573759122,-0.1210224506806357,0.7934692441200724
789,272.985226,1.15476667881012,0.73882985115051,-0.41242760419846,0.5230647690442143,-0.12221580865431836,0.7949100221906387
790,272.993559,1.06008362770081,0.83989083766937,-0.28652083873749,0.5222852862611113,-0.12276103301924081,0.7929941099517204
791,273.001892,1.11551284790039,0.81537795066833,-0.35649892687798,0.5208291326250346,-0.12294934720409184,0.7912701003405509
792,273.010225,1.07268559932709,0.72303861379623,-0.40093958377838,0.5212400884044418,-0.12166037851450408,0.7962638991219653
793,273.018558,1.014080286026,0.82708364725113,-0.34066933393478,0.5215889580395755,-0.12234573461571528,0.79148394720895
794,273.026891,0.95122283697128,0.79819071292877,-0.36840951442719,0.5231224274148745,-0.1235310520444602,0.7879623101682082
795,273.03522399999997,1.11913704872131,0.77089881896973,-0.40207943320274,0.520218245837153,-0.12122901118531529,0.794342196717554
796,273.04355699999996,1.02345514297485,0.78753530979156,-0.43580061197281,0.5225794169367571,-0.1206742987340806,0.7918379744704888
797,273.05189,1.02204632759094,0.9533873796463,-0.42624646425247,0.5193160991279449,-0.12249243502714184,0.7911767278398785
798,273.060223,0.92599296569824,0.93701988458633,-0.39950522780418,0.5227677189573948,-0.1221172785272408,0.794674328395299
799,273.068556,1.01413154602051,0.99434459209442,-0.49035885930061,0.5235100279049,-0.12110858547444284,0.7924189372938509
800,273.076889,0.97312319278717,0.95897126197815,-0.42499130964279,0.5229181172896408,-0.1216377530779153,0.7906971172410612
801,273.085222,1.10949349403381,0.79007107019424,-0.53462028503418,0.5245902100387887,-0.12273402846589386,0.7924036590420468
802,273.093555,1.0711487531662,0.76537889242172,-0.47096887230873,0.5211984867952306,-0.12172095629633672,0.7926619782739754
803,273.101888,0.9974182844162,0.7555046081543,-0.45371773838997,0.5208174549803439,-0.12159613930449184,0.7924379134664734
804,273.11022099999997,0.94105416536331,0.80180239677429,-0.39010480046272,0.5229560209780326,-0.12325297813026224,0.7901117753009407
805,273.11855399999996,1.11497485637665,0.95087718963623,-0.45449897646904,0.5234822934987592,-0.12251288306956429,0.7953655476472816
806,273.126887,1.00096583366394,0.75205951929092,-0.44530344009399,0.5238238646059622,-0.12218661454259182,0.7914153410463918
807,273.13522,1.0800369977951,0.7909420132637,-0.58643794059753,0.5207350302715693,-0.12351062833046428,0.7916182401228928
808,273.143553,0.98586618900299,0.82456064224243,-0.35932928323746,0.5229874046481386,-0.12316684333645612,0.7911957040125009
809,273.151886,1.10233426094055,0.78384679555893,-0.39451044797897,0.5230487122827643,-0.12414999154149285,0.7931415402159397
810,273.160219,0.96969079971313,0.62452632188797,-0.39228200912476,0.522430526966951,-0.1252374965317398,0.793940631710753
811,273.168552,1.0463799238205,0.66919749975204,-0.36572006344795,0.5235917714177346,-0.12544481121763876,0.7960340441489704
812,273.17688499999997,0.94305211305618,0.57816451787949,-0.38403424620628,0.5225451138554785,-0.12358653302095407,0.7904782100599642
813,273.18521799999996,0.99714934825897,0.50700813531876,-0.38029450178146,0.5206174753150162,-0.12451056314974387,0.7939597051970816
814,273.193551,0.89264327287674,0.51415449380875,-0.31864109635353,0.5219743203143683,-0.12412371684093877,0.7910555236193602
815,273.201884,0.81679952144623,0.48828414082527,-0.41249164938927,0.5222918549362489,-0.12386826836332959,0.7954727873510244
816,273.210217,0.9343689084053,0.49996423721313,-0.31610527634621,0.5210437580030796,-0.12360771091616835,0.7930832493061918
817,273.21855,0.93539333343506,0.40219467878342,-0.34023386240005,0.5213926276382133,-0.12178080422537653,0.7911270491930907
818,273.226883,0.79840844869614,0.56622821092606,-0.29189983010292,0.5203408611064051,-0.12354639111732958,0.787247054430903
819,273.235216,0.87394487857819,0.58208346366882,-0.30319568514824,0.5244427797745683,-0.12197279200261939,0.7930832493061918
820,273.243549,0.88111680746078,0.38505876064301,-0.33695521950722,0.5220319786850286,-0.12361864654385306,0.7920970722120632
821,273.25188199999997,0.89205414056778,0.38137033581734,-0.29579320549965,0.522430526966951,-0.12219464292331633,0.792274426440803
822,273.26021499999996,0.81743991374969,0.35695999860764,-0.3351879119873,0.5216648627300652,-0.12308436997082754,0.793519603962801
823,273.268548,0.90688478946686,0.38298401236534,-0.27010211348534,0.5221852477715938,-0.12264279686674795,0.7915985827543295
824,273.276881,0.83273166418076,0.28500962257385,-0.36948534846306,0.5214021157245244,-0.1230989670266908,0.7951983627007928
825,273.285214,0.80967873334885,0.31700176000595,-0.31723228096962,0.5207561473457183,-0.12313328227218366,0.7921729769025531
826,273.293547,0.79671800136566,0.40252768993378,-0.28121864795685,0.5226969232364581,-0.1250032259493459,0.7946662513577203
827,273.30188,0.77597045898438,0.41707655787468,-0.31408175826073,0.5234903218794846,-0.12436093116293163,0.789859976087298
828,273.310213,0.90208208560944,0.386096149683,-0.24570453166962,0.5200598677810357,-0.12216839255118876,0.7933423470477673
829,273.31854599999997,0.82101303339005,0.44984996318817,-0.3400673866272,0.5222728787636265,-0.12234208535174897,0.7954574604423683
830,273.32687899999996,0.85493910312653,0.33862015604973,-0.19835661351681,0.5223969537384653,-0.12459668577933775,0.7938421988973816
831,273.335212,0.8604719042778,0.39387008547783,-0.29899498820305,0.5226582410384194,-0.12436895954365612,0.7927904810224264
832,273.343545,0.83531868457794,0.50239759683609,-0.23987731337547,0.5219889173702316,-0.12278657786700203,0.7911233999291244
833,273.351878,0.87724906206131,0.34768760204315,-0.24704927206039,0.5235173264328316,-0.12240481619932245,0.794608495673355
834,273.360211,0.76186978816986,0.27024298906326,-0.18535742163658,0.5230582003690755,-0.12342595324224385,0.7919401538615326
835,273.368544,0.8699107170105,0.39936435222626,-0.28525292873383,0.5231844649022938,-0.12387043359328263,0.7933326643340438
836,273.376877,0.88967210054398,0.47363284230232,-0.31584915518761,0.521265633252202,-0.12467405017541429,0.7899570465087887
837,273.38521,0.88024598360062,0.4194843173027,-0.33913245797157,0.5207196547060592,-0.12479667760887958,0.7925400928575163
838,273.39354299999997,0.78529399633408,0.34397354722023,-0.27425161004066,0.5238844423877949,-0.12527693291099695,0.7944166417024571
839,273.401876,0.77727681398392,0.21085639297962,-0.35736986994743,0.5211868091505398,-0.12283474815135101,0.7904818593239296
840,273.410209,0.77940279245377,0.24085070192814,-0.26103469729424,0.5227713682213613,-0.1214654956545153,0.7905789297454213
841,273.418542,0.86846339702606,0.19553904235363,-0.32893797755241,0.520041621461206,-0.12306609932257244,0.794684546334403
842,273.426875,0.90487414598465,0.32364869117737,-0.33773651719093,0.5202313831874306,-0.1249098047918204,0.7911715702134734
843,273.435208,0.84769022464752,0.36669337749481,-0.29607492685318,0.5223976835912592,-0.12234788768145509,0.7896482214635734
844,273.443541,0.93167930841446,0.4687148630619,-0.31566980481148,0.5208875208484888,-0.12364563893298672,0.7919736297763122
845,273.451874,0.87724906206131,0.39054024219513,-0.26357048749924,0.5225662795864805,-0.12213844425824182,0.7916635396529214
846,273.46020699999997,0.86692655086517,0.5184833407402,-0.24520507454872,0.5212108942927143,-0.12284641363182856,0.7937026997001806
847,273.46853999999996,0.90651339292526,0.46033900976181,-0.26523539423943,0.5239931904539765,-0.12269243902089694,0.794209460822903
848,273.476873,0.86008757352829,0.46717801690102,-0.23211619257927,0.5240610667637418,-0.12232090745653469,0.7958180077221928
849,273.485206,0.89707452058792,0.53520941734314,-0.27548107504845,0.5214561248312194,-0.12482952098457141,0.7946407065099601
850,273.493539,0.9506339430809,0.49187019467354,-0.25634726881981,0.5221728402741102,-0.12313033853258366,0.7912342402399806
851,273.501872,0.91205894947052,0.3910525739193,-0.25744870305061,0.521292637805549,-0.12189320155552448,0.7905723610702826
852,273.510205,0.95480901002884,0.45539546012878,-0.34469076991081,0.5244894903533316,-0.12417700825905306,0.7919116896025988
853,273.518538,0.86058712005615,0.39068114757538,-0.30238887667656,0.5227538517543244,-0.12468280840893162,0.7912343375536857
854,273.52687099999997,0.78958451747894,0.40994307398796,-0.40154162049294,0.5228012921858806,-0.12333691120147754,0.7906884076643959
855,273.53520399999996,0.89707458019257,0.3298345208168,-0.4098533987999,0.5217137628672072,-0.1244032626249357,0.7933561169371316
856,273.543537,0.89651101827621,0.39673885703087,-0.36548951268196,0.5213758410239704,-0.12382373517873367,0.7922649383544917
857,273.55187,0.87115293741226,0.38423910737038,-0.20401737093925,0.5220480354464785,-0.12296467411274796,0.7929057977637469
858,273.560203,0.76826053857803,0.35242623090744,-0.29781669378281,0.5240326511616612,-0.12459379069659182,0.7928453172956194
859,273.568536,0.82443255186081,0.28862118721008,-0.33623802661896,0.5233297056081347,-0.12344786099025203,0.7935539070440795
860,273.576869,0.88800716400146,0.29466617107391,-0.27809375524521,0.5218079138775266,-0.12436747550964386,0.7942151050178367
861,273.585202,0.86969292163849,0.28165411949158,-0.274021089077,0.5235706543435856,-0.12339166232517755,0.7961823015796897
862,273.593535,0.89318120479584,0.3871847987175,-0.36531022191048,0.5246325415007919,-0.12486382406585102,0.7944947359513265
863,273.60186799999997,0.68877953290939,0.30183812975883,-0.22153748571873,0.5230093002319336,-0.12278145673323672,0.7932450819988642
864,273.61020099999996,0.70440423488617,0.18793162703514,-0.30893328785896,0.52349397114345,-0.12295445617364388,0.7945304987381918
865,273.618534,0.57630753517151,0.19325938820839,-0.25522023439407,0.523269127826301,-0.1239157087948857,0.7918387043232815
866,273.626867,0.59167605638504,-0.00639075180516,-0.26067608594894,0.5200730051313132,-0.12463025900782346,0.7943115429002408
867,273.6352,0.57784432172775,-0.0632287338376,-0.23790501058102,0.5223720900866449,-0.12392590240556325,0.7901693363578949
868,273.643533,0.533646941185,0.11238245666027,-0.30446356534958,0.5216313381584327,-0.12372229780469592,0.7940810067313061
869,273.651866,0.56321865320206,0.03219709545374,-0.17932525277138,0.52396399634225,-0.12402591656665407,0.7880666791176305
870,273.660199,0.40392369031906,-0.09921673685312,-0.18547268211842,0.5209568568638387,-0.12376023798572755,0.7930758534645551
871,273.66853199999997,0.39011758565903,0.01011762209237,-0.1501762419939,0.5216750806691693,-0.12299678763564795,0.7933488184091999
872,273.67686499999996,0.44057762622833,0.14123690128326,-0.20319771766663,0.5226706485359041,-0.12390035755780304,0.7898795847990071
873,273.685198,0.29160523414612,0.05678675323725,-0.14871624112129,0.5209707240669091,-0.12100347450801326,0.7920532810444734
874,273.693531,0.52459233999252,-0.04168716445565,-0.20107173919678,0.5194839652703734,-0.12167569325894693,0.7943699311236948
875,273.701864,0.57980382442474,-0.06493207812309,-0.06576454639435,0.5181760204081632,-0.12172971452985508,0.7937013373083
876,273.710197,0.43694040179253,0.16313704848289,-0.1564773619175,0.5210247818304571,-0.1231208626104857,0.7906249104713907
877,273.71853,0.47223687171936,0.19477066397667,-0.16431532800198,0.5205984991423939,-0.1220201959415357,0.7904563144761694
878,273.726863,0.45744460821152,0.27108824253082,-0.15400558710098,0.5218655722481867,-0.1230500547253357,0.7928027425493509
879,273.735196,0.47346630692482,0.29697144031525,-0.07668901979923,0.5204342822639305,-0.12103485817811938,0.7899081463716469
880,273.74352899999997,0.56004250049591,0.27929762005806,0.01251255348325,0.5217363883037959,-0.1215669451927653,0.793909345354353
881,273.75186199999996,0.60422700643539,0.35911151766777,-0.0662640184164,0.5197167883113939,-0.12330991881234284,0.7929503674409826
882,273.760195,0.53258395195007,0.36907550692558,-0.15245592594147,0.5193394544173254,-0.12192969419518265,0.7942546143823744
883,273.768528,0.7167375087738,0.40535807609558,-0.11017964035273,0.519700001697151,-0.12331569681362245,0.7902715157489387
884,273.776861,0.69103360176086,0.68587231636047,-0.10086885839701,0.522270689205248,-0.12299532793006122,0.7934568366225887
885,273.785194,0.73921400308609,0.63310700654984,-0.08849718421698,0.5233450325167908,-0.1224267604399704,0.7934583449850274
886,273.793527,0.77468967437744,0.54148489236832,-0.11183173954487,0.5236567283163265,-0.1229814607269908,0.7906935166339489
887,273.80186,0.84856128692627,0.51907253265381,-0.15875704586506,0.5212408182572347,-0.12120929299568672,0.794091078699851
888,273.81019299999997,0.82553398609161,0.62626802921295,-0.25960025191307,0.520607987228705,-0.12286394226307755,0.7933889603128235
889,273.81852599999996,0.94435840845108,0.69814157485962,-0.27650564908981,0.5208721939398315,-0.12102686629003366,0.7936934062412806
890,273.826859,1.10767471790314,0.74299210309982,-0.26551714539528,0.5210313505055949,-0.12220486086242041,0.7922094695422112
891,273.835192,1.10009288787842,0.73138880729675,-0.34010583162308,0.5231917634302254,-0.12227346702497857,0.7926889828273224
892,273.843525,1.10209083557129,0.76998949050903,-0.29776546359062,0.5234195261585469,-0.1216319142555704,0.7925057411193847
893,273.851858,1.05703544616699,0.60659629106522,-0.33872264623642,0.5238311631338939,-0.12386534895215713,0.7918168087394867
894,273.860191,1.10075879096985,0.664381980896,-0.31203261017799,0.5231012616838724,-0.12331282605930205,0.7925444719742755
895,273.868524,1.20641767978668,0.54135692119598,-0.29425635933876,0.5229085805464765,-0.12121952309900406,0.7937086358362316
896,273.876857,1.09043645858765,0.41991972923279,-0.27873408794403,0.5230078405263469,-0.12207784214798263,0.7972937214131255
897,273.88518999999997,1.09245979785919,0.51812469959259,-0.32799026370049,0.5204663957868306,-0.1231901742974102,0.793048751597502
898,273.89352299999996,1.25044858455658,0.66415154933929,-0.271254748106,0.5222721489108336,-0.12099179686332244,0.7923182176083938
899,273.901856,1.1643078327179,0.49163964390755,-0.34077179431915,0.5210963074041877,-0.12452006340026836,0.7916737575920265
900,273.910189,1.30946373939514,0.47073841094971,-0.37407025694847,0.5209181746658009,-0.12463390827178979,0.7919620494453274
901,273.918522,1.1891280412674,0.49284338951111,-0.46351516246796,0.5217312793342439,-0.12389308335829795,0.7955070904323029
902,273.926855,1.19171512126923,0.47655281424522,-0.46886852383614,0.5211276910742938,-0.1218143896180755,0.7887740037879163
903,273.935188,1.25070476531982,0.59678608179092,-0.29494792222977,0.5218947663599133,-0.12447990933243061,0.7956683878995938
904,273.943521,0.98780012130737,0.6163809299469,-0.38021767139435,0.523739931534748,-0.1241025267815102,0.7923706696957958
905,273.95185399999997,1.03518652915955,0.48597884178162,-0.24297662079334,0.5228144295361581,-0.12342957817778265,0.7917473754104306
906,273.96018699999996,1.02350640296936,0.40027365088463,-0.30232480168343,0.5214108739580429,-0.12621116881467856,0.7902817336880428
907,273.96852,0.37592732906342,1.05515277385712,-0.18339793384075,0.5190635214046551,-0.1255557488422,0.7872454487547581
908,273.976853,1.38005650043488,0.69903802871704,-0.16195879876614,0.5192307063511439,-0.12029476311742039,0.7917168189068233
909,273.985186,1.12342762947083,0.99675238132477,-0.20109736919403,0.5209838614171868,-0.12163701106090918,0.7869587139207489
910,273.993519,0.56798285245895,1.1511036157608,-0.39873680472374,0.5221429649664429,-0.12201436928340406,0.7944290005430887
911,274.001852,1.58778810501099,0.86740052700043,-0.34374302625656,0.5249727988729673,-0.12166303031298571,0.7943871069927602
912,274.010185,1.56481218338013,0.80382597446442,-0.52821677923203,0.5208662578037806,-0.12252412280257857,0.789514366461306
913,274.018518,1.42849290370941,0.82027024030685,-0.53771960735321,0.5225868127783948,-0.12258297326613467,0.7916709354945591
914,274.02685099999997,1.66829371452332,0.74814069271088,-0.42809075117111,0.5214052297631092,-0.12178611998655407,0.7932602142801092
915,274.035184,1.27672851085663,0.67757326364517,-0.50411373376846,0.5223487834541163,-0.1232164733263908,0.789811075950155
916,274.043517,1.67974305152893,0.729800760746,-0.48451885581017,0.523233608323701,-0.12167650826123264,0.7931337551194796
917,274.05185,1.64267945289612,0.74742347002029,-0.38316336274147,0.5216471516356174,-0.12362834142178877,0.7909679899410326
918,274.060183,1.42298591136932,0.88576585054398,-0.37786120176315,0.5241016952358949,-0.1241363797869,0.7930476324898856
919,274.068516,1.42969691753387,0.87756931781769,-0.38582721352577,0.5198721982994857,-0.12654131772566837,0.7946314617079132
920,274.076849,1.45221173763275,0.79227387905121,-0.17673821747303,0.5204561778477255,-0.1242579854264551,0.7921940453198489
921,274.085182,1.4688994884491,1.12391424179077,-0.26514571905136,0.5229072181545958,-0.1263210481526898,0.7881978579929897
922,274.09351499999997,1.46691465377808,1.08686339855194,-0.22981092333794,0.521596110596949,-0.1257990331065898,0.7910719209787795
923,274.10184799999996,1.38715171813965,1.08330285549164,-0.26999965310097,0.5220160192372846,-0.12360376971108569,0.7924463311020203
924,274.110181,1.27930283546448,1.12465691566467,-0.13886757194996,0.5257112639290948,-0.12473375213389488,0.7918713530715632
925,274.118514,1.21371757984161,1.02052223682404,-0.1203612908721,0.5248128637975571,-0.12308512415204692,0.7917635781424387
926,274.126847,1.17716610431671,1.08934772014618,-0.04223787039518,0.5204474196142082,-0.12397044775437346,0.7906365881160816
927,274.13518,1.18884634971619,1.19610798358917,-0.00499477563426,0.5252340861729213,-0.12275419673141122,0.7885675527611561
928,274.143513,1.0928441286087,0.8779279589653,-0.03270937874913,0.5248610340819071,-0.12310334614345,0.7923853154085122
929,274.151846,1.19355928897858,1.02298128604889,-0.06052643433213,0.5228122886346306,-0.12326390159373367,0.7912985159426316
930,274.16017899999997,1.23241603374481,1.12408077716827,-0.05898958444595,0.5249092043662561,-0.1221756910791204,0.7950443637614346
931,274.16851199999996,1.17957389354706,0.96844857931137,-0.06360013782978,0.5257412365504673,-0.1244492433509051,0.7921583798466898
932,274.176845,1.19722211360931,0.91773253679276,-0.07294933497906,0.5260923444008336,-0.12543313357294794,0.7920277361967122
933,274.185178,1.31348514556885,1.08758044242859,-0.11751811206341,0.5218096168673765,-0.12506980068829593,0.7900098878510142
934,274.193511,1.26369094848633,1.05948150157928,-0.09669373184443,0.5246880589699254,-0.12175161011364999,0.7886454523826132
935,274.201844,1.31416380405426,1.08318758010864,-0.10533854365349,0.5241146379587601,-0.12411334076706222,0.7893777380184255
936,274.210177,1.32424306869507,1.02456939220428,-0.140929505229,0.5251381348590458,-0.12346609514586733,0.790759592640157
937,274.21851,1.25692903995514,0.9178860783577,-0.24817630648613,0.5240304129464285,-0.12444267467576632,0.7944764896314969
938,274.226843,1.32480657100677,0.92936110496521,-0.2405176460743,0.5224042522663969,-0.12312816113841733,0.7910635520000846
939,274.23517599999997,1.11968791484833,1.0387852191925,-0.05404603481293,0.5236268043518072,-0.12459814548492448,0.7900592258998326
940,274.24350899999996,1.19604384899139,0.90090388059616,-0.16718409955502,0.5247595845436561,-0.1222070504208,0.7919029313690806
941,274.251842,1.48095095157623,0.97264927625656,-0.06508577615023,0.5251505910133826,-0.12530321977576428,0.7894949037201551
942,274.260175,1.29518389701843,1.08592844009399,-0.1555168479681,0.523758664423106,-0.12520804697153468,0.7912625098715019
943,274.268508,1.318274974823,1.06619250774384,-0.16626198589802,0.5242336526208989,-0.12490463500120204,0.7922328734884458
944,274.276841,1.28215909004211,1.04237139225006,-0.17097502946854,0.5256208108395949,-0.12597834577365816,0.7924619986086479
945,274.285174,1.3054678440094,1.11037719249725,-0.22691652178764,0.5239218595076581,-0.12448925144818365,0.7887682136224244
946,274.293507,1.17224836349487,1.00989246368408,-0.11111456155777,0.5250865585949959,-0.12433757587354999,0.7923992312684346
947,274.30183999999997,1.20001411437988,1.09541833400726,-0.10560750216246,0.5258850662075745,-0.12520831458422652,0.7907328800279264
948,274.31017299999996,1.10101509094238,0.94401270151138,-0.20575915277004,0.5248033757112459,-0.12262015926594591,0.7913029437162439
949,274.318506,1.28446412086487,1.03834986686707,-0.1996373385191,0.5238494094537224,-0.1254521097455704,0.7926663573907347
950,274.326839,1.13884723186493,1.06911253929138,-0.02902092784643,0.5214553949784254,-0.12689946865548876,0.7887921527940397
951,274.335172,1.15485620498657,1.16247642040253,-0.10570994764566,0.522505701804648,-0.1253455390735551,0.7901825710218775
952,274.343505,1.10383272171021,1.21004211902618,-0.08260591328144,0.5261273773349061,-0.12412882581049081,0.789362216482357
953,274.351838,1.0474556684494,1.3421345949173,-0.13375751674175,0.5280727756266693,-0.12355893242115917,0.7912049974714009
954,274.360171,1.15536856651306,1.21129715442657,-0.08583330363035,0.525818649603396,-0.126584135756201,0.7924188886369979
955,274.368504,1.1729142665863,1.1002082824707,-0.08460382372141,0.528019204431651,-0.1256535491164847,0.7917051412621327
956,274.37683699999997,1.01958739757538,1.03061413764954,-0.0541741065681,0.5260324964717938,-0.1267359694656061,0.7900482781079347
957,274.38516999999996,1.16899526119232,1.02121388912201,-0.11654476076365,0.5252099037170408,-0.12320187627052755,0.788587794011953
958,274.393503,1.15565025806427,1.0406551361084,-0.16434094309807,0.5282717334980866,-0.12569735244828875,0.7909876473095948
959,274.401836,1.10542070865631,1.06662797927856,-0.08872770518064,0.5263339256753724,-0.12642358030591735,0.7891293934413367
960,274.410169,1.240971326828,0.92180502414703,-0.16649253666401,0.5291439562427754,-0.12499373786303468,0.7904723712376184
961,274.418502,1.08412253856659,0.90875464677811,-0.19711436331272,0.5243778228759766,-0.1243514430766204,0.7890337340685786
962,274.426835,1.11733138561249,0.87380397319794,-0.25655218958855,0.527719964786452,-0.12376826636645305,0.7887498699888887
963,274.435168,1.28295302391052,0.73100471496582,-0.26961541175842,0.526891533209353,-0.12570611068180612,0.7918868746076315
964,274.44350099999997,1.12271046638489,0.77057862281799,-0.29131072759628,0.5265419337214254,-0.12382519488431937,0.7906774598724989
965,274.45183399999996,1.10396075248718,0.73177295923233,-0.28242254257202,0.5275944301060265,-0.1252798523221694,0.7914854069145357
966,274.460167,1.23806405067444,0.9703568816185,-0.26427489519119,0.5249223417165326,-0.1269527479093898,0.7905198116691744
967,274.4685,1.27581930160522,0.85271066427231,-0.21814362704754,0.5267017714831296,-0.1259966042577,0.7899643450367203
968,274.476833,1.19432771205902,0.92590343952179,-0.20145596563816,0.5277228841976244,-0.12635059502659998,0.7914970845592265
969,274.485166,1.21958339214325,0.89567869901657,-0.28575238585472,0.5284294303582643,-0.12776874766057858,0.7878505940339999
970,274.493499,1.31397175788879,0.87803030014038,-0.28603413701057,0.5279790625280265,-0.12748847202378877,0.7890512505356142
971,274.501832,1.14813244342804,0.90012246370316,-0.35707518458366,0.5260346860301733,-0.12548130385729692,0.7860791439912754
972,274.510165,1.10777711868286,0.7882267832756,-0.32430177927017,0.5286264906124193,-0.12405948979513978,0.7908015348473377
973,274.51849799999997,1.1918431520462,0.78671562671661,-0.41226109862328,0.5286732011911817,-0.12478427011139488,0.7927649848315182
974,274.526831,1.18090581893921,0.4753745496273,-0.3080367743969,0.528772461171053,-0.12505870692583979,0.7908074223265357
975,274.535164,1.02663135528564,0.59921938180923,-0.23244915902615,0.5286746608967683,-0.12700240222775203,0.789972470731151
976,274.543497,0.91779655218124,0.48884770274162,-0.3351879119873,0.5264952231426633,-0.12641409221960612,0.7908723305682744
977,274.55183,0.83244985342026,0.44689154624939,-0.31041890382767,0.5283228718504611,-0.12470032487596734,0.7889418212734918
978,274.560163,0.99551010131836,0.52629572153091,-0.25619360804558,0.5258777676796428,-0.12582286280028673,0.7922049931117469
979,274.568496,1.0115829706192,0.46470621228218,-0.30177408456802,0.5253960161792989,-0.12640460413329488,0.7898577865289184
980,274.576829,0.9658231139183,0.52655184268951,-0.2772228717804,0.5278520681420152,-0.1257856646362612,0.7875659514446642
981,274.58516199999997,0.95237576961517,0.56907147169113,-0.27860605716705,0.5262908643605755,-0.12608421092130712,0.7882857322692867
982,274.59349499999996,1.03943836688995,0.55485552549362,-0.25995886325836,0.5276250839233397,-0.12672356196812246,0.7882068108539193
983,274.601828,0.98805624246597,0.5566229224205,-0.29305240511894,0.527372554856904,-0.1251842416062643,0.7884418234533194
984,274.610161,0.95104366540909,0.55055236816406,-0.35731855034828,0.529606001717704,-0.12619439436464897,0.7867893880727337
985,274.618494,0.92186903953552,0.60075622797012,-0.34302580356598,0.5276469795071347,-0.12388070018923977,0.7899315989747336
986,274.626827,0.96185284852982,0.58149439096451,-0.36036667227745,0.5285513157747234,-0.12563311323827653,0.7905022952021387
987,274.63516,0.9738147854805,0.41792184114456,-0.36433684825897,0.5264718678532816,-0.12797311860687857,0.7885330550524653
988,274.643493,0.89799654483795,0.51884192228317,-0.24587105214596,0.5275404209993326,-0.12431495043696222,0.7887877736772806
989,274.65182599999997,0.82261389493942,0.63500249385834,-0.19177375733852,0.5275200337779765,-0.1264622625039551,0.7882271980752754
990,274.66015899999996,0.84694749116898,0.44853085279465,-0.25532272458076,0.5273397114812112,-0.12571924803208367,0.7872017549008734
991,274.668492,0.75827097892761,0.58131504058838,-0.23063057661057,0.52402316307535,-0.12569370318432244,0.7891680269825214
992,274.676825,0.90002024173737,0.49878603219986,-0.17274242639542,0.5239333425249367,-0.12639511604698364,0.7893833822133591
993,274.685158,0.9146203994751,0.57673013210297,-0.16615955531597,0.5270440724431255,-0.1270563870060204,0.7885607894586061
994,274.693491,0.83501118421555,0.63971549272537,-0.22199855744839,0.5293570732583806,-0.1263286994428051,0.7899409897473397
995,274.701824,0.86833536624908,0.5640766620636,-0.10458292067051,0.5278097366800112,-0.12590829206972756,0.7884769050442438
996,274.710157,0.69942224025726,0.61121964454651,-0.20710389316082,0.5270448509527714,-0.12499885899679998,0.7882651504205194
997,274.71849,0.84619182348251,0.56193786859512,-0.22185768187046,0.5281498480816276,-0.1260542626283602,0.7898833313766795
998,274.72682299999997,0.83949369192123,0.58692455291748,-0.15176433324814,0.52731416663345,-0.12609002541522552,0.7883439745221816
999,274.73515599999996,0.84423238039017,0.54724812507629,-0.20414543151855,0.5288439867447836,-0.1272191563431102,0.7872484654796367
1000,274.743489,0.85570752620697,0.66182059049606,-0.1825782507658,0.5286673623688366,-0.1273877645025449,0.7892411095755438
1001,274.751822,0.87110167741776,0.61832761764526,-0.27051192522049,0.5282308617416693,-0.12648342823495712,0.7884279562502489
1002,274.760155,0.74653965234756,0.58902490139008,-0.25693637132645,0.5275163358571582,-0.12591630828623876,0.7891797532840652
1003,274.768488,0.91421049833298,0.70490378141403,-0.29617738723755,0.5269389736409091,-0.12413391045161633,0.7891847649399112
1004,274.776821,0.8262767791748,0.58403015136719,-0.27061438560486,0.530567947699099,-0.126403874280501,0.7875542737999744
1005,274.785154,0.73006975650787,0.49197259545326,-0.2537602186203,0.5281556869039734,-0.127433733064301,0.7891104172687142
1006,274.79348699999997,0.85071283578873,0.47880694270134,-0.21930909156799,0.5276966581539234,-0.12533532113445,0.7893687365006428
1007,274.80181999999996,0.81495541334152,0.37993595004082,-0.21039532124996,0.5293074432684448,-0.12752792056725917,0.7898622629593826
1008,274.810153,0.68201738595963,0.38567352294922,-0.25273564457893,0.526795922493448,-0.12571781265492346,0.7878602280908703
1009,274.818486,0.71261358261108,0.29268103837967,-0.15034274756908,0.5262551015737101,-0.12486165883589795,0.7893294704203704
1010,274.826819,0.67243760824203,0.4074199795723,-0.16646690666676,0.5306518807703132,-0.1259352844588612,0.7888103991138693
1011,274.835152,0.64354491233826,0.42704054713249,-0.33377912640572,0.5296264375959122,-0.12654692542796225,0.7911336178682286
1012,274.843485,0.47379928827286,0.17940209805965,-0.29502475261688,0.5286330592875581,-0.1281614327917296,0.7900074063515173
1013,274.851818,0.57802367210388,0.21398133039474,-0.2057847827673,0.5279323519492632,-0.12599149528814796,0.7870725709564835
1014,274.860151,0.4716220498085,0.16900274157524,-0.18068282306194,0.5268601495392469,-0.12549955017712652,0.7911613522743693
1015,274.86848399999997,0.56708633899689,0.211650416255,-0.17210203409195,0.5269579498135316,-0.1240514614144153,0.7940035450215245
1016,274.87681699999996,0.72338438034058,0.35923960804939,-0.25437495112419,0.5296184092151877,-0.12547329980499897,0.787749241809456
1017,274.88515,0.71794128417969,0.34034913778305,-0.27031981945038,0.5266484922292285,-0.12457479019554284,0.790153376910151
1018,274.893483,0.86618375778198,0.61796903610229,-0.31561860442162,0.5323320992138918,-0.1276943026756755,0.7966654154719143
1019,274.901816,0.6776117682457,0.45260351896286,-0.13598597049713,0.530225646739103,-0.1310225408904408,0.8019671634751918
1020,274.910149,0.60968279838562,0.71422725915909,-0.25760233402252,0.5322394079091601,-0.1279957562076806,0.8006162059550388
1021,274.918482,0.78511464595795,1.36016702651978,-0.31590032577515,0.5294752607540204,-0.1307203818340694,0.7971499404128713
1022,274.926815,1.43405115604401,0.69450432062149,-0.3827790915966,0.5304278159628112,-0.13104008168590303,0.7958712869760938
1023,274.93514799999997,1.9434289932251,0.79894649982452,-0.62015914916992,0.5404876689521633,-0.1283213921955653,0.7825943401881622
1024,274.94348099999996,1.69077003002167,-0.07528023421764,-0.53916680812836,0.5313681583015285,-0.13597614911137754,0.7936883945854347
1025,274.951814,5.9801173210144,-0.48688822984695,-0.85356885194778,0.5400889746996816,-0.12873695821178163,0.7987403383060376
1026,274.960147,2.09010887145996,-0.88152670860291,-0.6639209985733,0.5384509417475489,-0.12879348531061324,0.7903144310931766
1027,274.96848,4.1225733757019,-1.50610435009003,-0.49399617314339,0.5448446954999653,-0.13940653022454694,0.8132127839691785
1028,274.976813,2.8720850944519,-2.44192004203796,-0.43165102601051,0.5430636114003704,-0.12906585420881017,0.799662774922896
1029,274.985146,2.04295301437378,-3.47786235809326,-0.35918840765953,0.5495980321144571,-0.14956446326508774,0.8134045406263704
1030,274.993479,1.54634416103363,-3.98123359680176,-0.20250613987446,0.5328897067478725,-0.12661641957808467,0.7952169496185928
1031,275.001812,0.15145698189735,-4.51325416564941,-0.07862289994955,0.5334464384585009,-0.12695268708832447,0.797382958081304
1032,275.01014499999997,0.99032312631607,-4.89616107940674,-0.16653093695641,0.5361496185769836,-0.12557691457320203,0.7968944919352632
1033,275.01847799999996,1.31914579868317,-5.12723970413208,-0.0578881688416,0.5237679092251519,-0.13028300538354998,0.7926334653581888
1034,275.026811,0.54160022735596,-5.31967973709106,0.38519966602325,0.525550793628303,-0.12660679768542857,0.7904165618273672
1035,275.035144,2.12289524078369,-5.18866300582886,0.30679452419281,0.5201512940075927,-0.13185019395789285,0.7846154971998561
1036,275.043477,1.73184239864349,-4.71579837799072,1.02926957607269,0.5184463578827531,-0.13822753818667652,0.7863065661216264
1037,275.05181,0.38852953910828,-4.78098678588867,1.08454513549805,0.5226519156475459,-0.1310020198627398,0.7904332511279051
1038,275.060143,-0.64435172080994,-5.25018835067749,1.35582554340363,0.5189171129343458,-0.13528791009163366,0.7889518932420377
1039,275.068476,-1.03270196914673,-4.92397832870483,1.5944607257843,0.5219462453102581,-0.12856858117239794,0.7904697437675632
1040,275.07680899999997,-1.96494495868683,-5.14373588562012,1.32598495483398,0.513652295482402,-0.11538664905392346,0.785011077413754
1041,275.08514199999996,-1.64512550830841,-4.96499919891357,1.29619562625885,0.5177741634602449,-0.12016095677200613,0.7950112771014775
1042,275.093475,-2.04250502586365,-4.83526277542114,1.38840687274933,0.5084368160792755,-0.1240976732604357,0.7838438481700664
1043,275.101808,-2.7860860824585,-4.45176696777344,1.22734451293945,0.505628147903754,-0.11747963574467857,0.7812218276821836
1044,275.110141,-2.41941833496094,-3.7175350189209,1.00488483905792,0.5064110366665592,-0.1131615225149663,0.7837649267546979
1045,275.118474,-1.737797498703,-3.52506899833679,0.62671625614166,0.5090001164650428,-0.11200475449464795,0.7851125756088572
1046,275.126807,-1.2817108631134,-3.38042616844177,0.37198275327682,0.5078385314162898,-0.11917117907076429,0.7830596456722336
1047,275.13514,-1.13312268257141,-2.9825599193573,0.15887227654457,0.5021406679737326,-0.12201817668214184,0.7860442570277623
1048,275.143473,-0.71571296453476,-2.45918440818787,-0.22140946984291,0.5101718221391949,-0.12012726190138877,0.7908752013225948
1049,275.15180599999997,-0.29092651605606,-2.59878206253052,-0.34584340453148,0.5175043612110367,-0.1284167352987796,0.7947221580816776
1050,275.160139,-0.4265538752079,-2.73069524765015,-0.4708409011364,0.5157102370748714,-0.12844764456457042,0.7947425453030337
1051,275.168472,-0.35333558917046,-2.57387208938599,-0.70092076063156,0.5166471247770347,-0.12863741845500715,0.8003335582966704
1052,275.176805,-0.09493915736675,-2.67066812515259,-1.17081391811371,0.5158460870081061,-0.11988879466543366,0.7909739747339367
1053,275.185138,0.19480907917023,-2.87915539741516,-1.58623850345612,0.511171185240454,-0.12085453588135409,0.7896747394483918
1054,275.193471,0.6109636425972,-2.73259091377258,-1.68416166305542,0.5025503586749642,-0.11122112371483672,0.7825833923962653
1055,275.201804,0.7627791762352,-2.32709169387817,-1.86627900600433,0.4959636805008867,-0.10464755856260917,0.77865727093755
1056,275.210137,1.67884635925293,-1.49480831623077,-2.1359965801239,0.494749205453055,-0.1137598193421653,0.7810562484118407
1057,275.21846999999997,1.75072014331818,-0.81049835681915,-2.12541794776917,0.498755270121049,-0.12180578951932959,0.7876499331727316
1058,275.22680299999996,1.80608534812927,-0.53131604194641,-2.28774833679199,0.5169428611288265,-0.12130591334128876,0.796560462640256
1059,275.235136,1.94679737091064,-0.80399239063263,-2.40965914726257,0.5115328029710418,-0.12929429813307142,0.7915412649816398
1060,275.243469,1.76201593875885,-0.77417743206024,-2.53078866004944,0.5084783203747806,-0.12753285923782653,0.7908984592982704
1061,275.251802,2.03853487968445,-0.56002968549728,-2.70659255981445,0.5081738744463234,-0.1273373073461102,0.787900564621906
1062,275.260135,1.79475116729736,-0.71631497144699,-2.75127625465393,0.5043264311187122,-0.13596830319385103,0.7862986350546081
1063,275.268468,1.92891848087311,-0.38327866792679,-3.00949358940125,0.5119732448032929,-0.12212361608232754,0.7982431625833316
1064,275.276801,2.217449426651,-0.98589169979095,-2.97233963012695,0.5260399896271377,-0.1277957157212857,0.8004067868602519
1065,275.28513399999997,3.13276195526123,-1.52231812477112,-3.5508759021759,0.5090432264366928,-0.13042404943582958,0.7801097266528071
1066,275.29346699999996,3.13844799995422,-1.65187478065491,-3.65761065483093,0.5143180185434765,-0.13015411338027652,0.7973228182111469
1067,275.3018,3.25670886039734,-1.71875357627869,-3.83742237091064,0.5098652353092111,-0.13195566985071935,0.7927278596527724
1068,275.310133,2.40680336952209,-1.84305953979492,-3.80614733695984,0.5179463114057266,-0.1355973068548704,0.8049304144723071
1069,275.318466,2.50675010681152,-2.28792762756348,-4.14389657974243,0.5192692425786234,-0.14300721032278876,0.7964429563405561
1070,275.326799,1.51768171787262,-2.72726273536682,-4.13347148895264,0.5101244790213448,-0.13797348859358774,0.7975980213710244
1071,275.335132,1.53899312019348,-2.73743176460266,-3.59260153770447,0.4980666783391213,-0.1278498951269653,0.7942352489549285
1072,275.343465,-0.34448575973511,-1.55717873573303,-3.46481132507324,0.5002509817785142,-0.12048853903400611,0.8071625962549326
1073,275.351798,-0.04095716401935,-1.25721073150635,-3.05452346801758,0.4961249779681765,-0.10325316263704896,0.7994037258381744
1074,275.36013099999997,0.49892690777779,-0.85680890083313,-2.76410913467407,0.49529581653828564,-0.11451913385975102,0.7942895986595928
1075,275.36846399999996,0.2740723490715,-0.29692023992538,-2.82408475875854,0.4936517987932479,-0.10166479616749081,0.8031447079716898
1076,275.376797,1.05188703536987,0.25427249073982,-2.39767146110535,0.49769829730598264,-0.11245565755026633,0.8074969661479091
1077,275.38513,1.46212470531464,0.41933065652847,-1.92432069778442,0.5045896646927815,-0.12310321233710508,0.807489181051449
1078,275.393463,0.56659972667694,0.29077279567719,-1.41564750671387,0.5083882565401041,-0.13971107346670916,0.8057487740808601
1079,275.401796,-0.48321253061295,0.27140843868256,-0.81760638952255,0.501539853154397,-0.1364506993974959,0.7981427348389918
1080,275.410129,-0.61098921298981,0.64154690504074,-0.28305011987686,0.49943048126843465,-0.1264074992160408,0.801592846306003
1081,275.418462,-0.60683965682983,0.65566027164459,0.21075391769409,0.5069489868319765,-0.1267023962371204,0.801805963321608
1082,275.42679499999997,-1.14124226570129,0.76724874973297,0.66818571090698,0.5067563056945796,-0.13511718535909897,0.8064136213185836
1083,275.43512799999996,-1.82101833820343,0.67175883054733,0.91851359605789,0.5139119771062112,-0.13744652271270713,0.8125364050573234
1084,275.443461,-2.28530216217041,0.38016650080681,1.28992009162903,0.5095649252132489,-0.13145170649703672,0.8085329192025316
1085,275.451794,-2.97260904312134,0.48418599367142,1.55920267105103,0.5073724474225724,-0.12084862407372958,0.799092273322903
1086,275.460127,-2.71941208839417,0.63548916578293,1.43164360523224,0.5119581125220469,-0.11290561179725508,0.8068392228107061
1087,275.46846,-2.26071214675903,0.33050042390823,1.37798166275024,0.5114827837262836,-0.11610129658056735,0.8065979334772846
1088,275.476793,-2.58188915252686,0.21738803386688,1.27790701389313,0.5266865905450316,-0.11965980335157755,0.8156183301186071
1089,275.485126,-2.42418241500854,-0.89540964365005,1.47623789310455,0.5312986763156193,-0.12856133130131936,0.8188930822878469
1090,275.493459,-2.85366868972778,-1.73075366020203,1.67783463001251,0.5193231543716123,-0.12338183364089692,0.8113570116004163
1091,275.50179199999997,-3.09088230133057,-1.90692842006683,1.8574161529541,0.5081482809417102,-0.12346028065194897,0.8036444625075979
1092,275.51012499999996,-2.99602031707764,-1.90245866775513,2.0775318145752,0.5060539440232877,-0.12581292463808672,0.8040186337062285
1093,275.518458,-5.89519309997559,-1.46028029918671,2.75349187850952,0.5029715810503276,-0.12118715412762651,0.8018056227236378
1094,275.526791,-4.85873889923096,-1.43768870830536,2.78904438018799,0.5010442344509826,-0.11268511110422551,0.7993724394817745
1095,275.535124,-4.6912727355957,-1.15851902961731,2.54363441467285,0.5053908484322683,-0.11922121047973673,0.8011634982362081
1096,275.543457,-4.13959360122681,-1.26599633693695,2.46535754203796,0.504704154267603,-0.1167486273512551,0.8005145617893764
1097,275.55179,-4.13790321350098,-0.83931452035904,2.40805840492249,0.5009714924559305,-0.11371253704538163,0.7995606928455581
1098,275.560123,-2.78188538551331,-0.71726262569427,1.98414289951324,0.5023020140978754,-0.11521800440184896,0.7990315009136592
1099,275.56845599999997,-2.64843511581421,-0.49078160524368,1.62964189052582,0.4993626536155234,-0.11677053509926327,0.8007819311959398
1100,275.57678899999996,-2.27395510673523,-0.10943682491779,1.35141980648041,0.4956870662922765,-0.12184962934377243,0.796124205297353
1101,275.585122,-2.26527142524719,0.28731486201286,1.38320708274841,0.49862847036244895,-0.12868608747209795,0.8005022029487459
1102,275.593455,-2.77340698242188,0.40654912590981,1.63146030902863,0.496734891619001,-0.12154913678461225,0.7967746501066244
1103,275.601788,-2.76249527931213,0.88064301013947,1.62328922748566,0.5015523579655856,-0.1190172531166857,0.7990562185949204
1104,275.610121,-2.71346974372864,0.9758512377739,1.67405700683594,0.5006402366015378,-0.11123177956561632,0.7969232967921662
1105,275.618454,-2.78689241409302,1.46184265613556,1.85224211215973,0.4983232459243459,-0.11284325804029183,0.7987186860065071
1106,275.626787,-2.49531316757202,1.7446368932724,1.64769983291626,0.5016279707149581,-0.11128059455326632,0.7986419541495182
1107,275.63512,-3.09133052825928,1.86415243148804,1.77805018424988,0.5074772056268183,-0.10488397004652959,0.7999304849274306
1108,275.64345299999997,-2.7498676776886,1.35086917877197,1.86314117908478,0.5009780611310684,-0.10638327014689591,0.7969540479231857
1109,275.651786,-2.7679762840271,1.86604809761047,2.07181978225708,0.4953867075394611,-0.09813238163383672,0.7924283767233091
1110,275.660119,-1.9322863817215,2.44047284126282,2.11172699928284,0.4977672927233633,-0.10513894411982347,0.7981431727506674
1111,275.668452,-2.07936358451843,2.6122932434082,2.12745451927185,0.49402125027714894,-0.10120439894345305,0.7897140055286642
1112,275.676785,-0.38809409737587,3.76697063446045,2.35594606399536,0.4857209264015663,-0.10701017720358673,0.7950525381127183
1113,275.685118,0.92837512493134,3.85924553871155,2.25380945205688,0.5142263003758021,-0.12526323600691222,0.8004503347435774
1114,275.693451,-1.03811943531036,4.21687173843384,2.28651881217957,0.5029185937375438,-0.10757497378758059,0.7959317674442213
1115,275.701784,0.37423679232597,3.89510583877563,2.07102632522583,0.5050833371220806,-0.10831298876781836,0.8025187375594163
1116,275.71011699999997,0.22024402022362,4.48915147781372,1.69439458847046,0.5059132770616184,-0.10297952866067653,0.7960922864018652
1117,275.71844999999996,1.26110410690308,4.01318740844727,1.7813549041748,0.5106272016252785,-0.10423202903903264,0.7996713385290031
1118,275.726783,1.02517139911652,4.05627012252808,1.43507599830627,0.5182613645281112,-0.1049612006362602,0.8013022189237632
1119,275.735116,0.42088028788567,3.41522264480591,0.86723393201828,0.5180408516708683,-0.10728238796701224,0.7996266715380611
1120,275.743449,0.34800782799721,3.32329368591309,0.64920562505722,0.5129268218059928,-0.10982079165322449,0.8017607611052846
1121,275.751782,-0.6353098154068,3.18933081626892,0.45059281587601,0.5178063256399968,-0.11150382003005714,0.8011492904351684
1122,275.760115,-0.25839641690254,3.39073586463928,0.36247986555099,0.515849395674102,-0.11779591745259796,0.7933348052355703
1123,275.768448,0.41708946228027,3.48504757881165,0.17790368199348,0.5033201100874918,-0.10175045047487549,0.787367918053452
1124,275.77678099999997,1.84982168674469,4.11246824264526,0.38781231641769,0.5010653515251315,-0.11505417677820917,0.7849566303953837
1125,275.78511399999996,2.7763524055481,5.25477266311646,0.04082909226418,0.5015644248651,-0.10956207100225918,0.7861113548278805
1126,275.793447,4.12541580200195,6.08745384216309,0.03536045178771,0.5096425815504428,-0.11138051140065101,0.7972444320211601
1127,275.80178,4.14324378967285,6.64123439788818,0.04542685300112,0.5170975412641255,-0.11068319787784489,0.798850546077806
1128,275.810113,3.77424478530884,6.44425964355469,0.03751204535365,0.5165686899301959,-0.11249311116276939,0.7974188668387275
1129,275.818446,4.26391267776489,6.48127317428589,0.59700381755829,0.5199308298072041,-0.12551495007106223,0.8038532004064438
1130,275.826779,2.64903712272644,6.52929973602295,0.77766102552414,0.5222096248548856,-0.1120395076518153,0.797140257699149
1131,275.835112,3.52891182899475,6.5819878578186,0.73726731538773,0.5173654945529234,-0.12326627361531121,0.8020550377514897
1132,275.843445,1.94887173175812,6.16754913330078,0.44500890374184,0.5250771678223898,-0.11215653954719998,0.805304877612055
1133,275.85177799999997,2.90118360519409,6.57881164550781,0.63153183460236,0.5267261972232745,-0.11572288007152345,0.8041274304292642
