,timestamp,GyrY,GyrX,GyrZ,AccY,AccX,AccZ
194,268.002092,-0.16646690666676,1.63265120983124,-0.31372314691544,0.9351255455795601,-0.3352150625112102,0.14831639066034388
195,268.010425,-0.3116739988327,1.64860892295837,-0.58044415712357,0.9353771988226438,-0.33695106603661323,0.14888934943140816
196,268.018758,-0.5168439745903,1.60168361663818,-0.5331346988678,0.9371886934552877,-0.33897618858181733,0.1499696775358551
197,268.027091,-0.46346393227577,1.66220998764038,-0.61279493570328,0.9360067211851785,-0.3368751126892714,0.15014154570443264
198,268.035424,-0.65554505586624,1.68959164619446,-0.56479382514954,0.9344615741651886,-0.3361340931483673,0.14807285094747755
199,268.04375699999997,-0.54883617162704,1.80480456352234,-0.60521310567856,0.9347069020173989,-0.3342520217506255,0.14470194067273776
200,268.05208999999996,-0.67964804172516,1.69591844081879,-0.45777758955956,0.936007110440001,-0.33589613680936836,0.14586317295930815
201,268.060423,-0.68284994363785,1.72709119319916,-0.42719423770905,0.9371445130328744,-0.33398511458416325,0.14284230008417242
202,268.068756,-0.72168111801147,1.79530155658722,-0.33810788393021,0.9369783012234437,-0.334202586388101,0.14574302702533978
203,268.077089,-0.77854460477829,1.79181814193726,-0.27117788791656,0.9337924451244122,-0.3336890133059755,0.14578370415434588
204,268.085422,-0.87085837125778,1.91638016700745,-0.25719252228737,0.9345849679440867,-0.3337699296523112,0.14694981429041631
205,268.093755,-0.87211346626282,1.83615636825562,-0.15937176346779,0.9343933572574541,-0.33378450237974794,0.14497981995952347
206,268.102088,-0.75959002971649,1.86346113681793,-0.21536445617676,0.9350982977419479,-0.3344274540336765,0.1510307861834153
207,268.110421,-0.76064026355743,1.81061887741089,-0.22663475573063,0.9358021677756796,-0.3354380325395234,0.14637507954422346
208,268.11875399999997,-0.88233363628387,1.61044383049011,-0.13644704222679,0.9368073210424306,-0.3345179557800296,0.14566184306631325
209,268.12708699999996,-0.71755719184875,1.55747365951538,-0.2905935049057,0.9346039441167091,-0.33552948309450714,0.147376668696501
210,268.13542,-0.67949438095093,1.51252055168152,-0.28421553969383,0.9328269958496092,-0.33440237142601836,0.1488573575506408
211,268.143753,-0.73003137111664,1.47786474227905,-0.36180108785629,0.9335832206570366,-0.33480410673180405,0.15033610013066528
212,268.152086,-0.80039358139038,1.25138354301453,-0.41016075015068,0.934875935924297,-0.33460631662485507,0.14932655558294183
213,268.160419,-0.79893362522125,1.14393174648285,-0.4735047519207,0.9339890188100388,-0.3323633816777439,0.14860322280805915
214,268.168752,-0.69803911447525,1.14685189723969,-0.62222099304199,0.9328651428222652,-0.3291358509842235,0.14917691143191633
215,268.177085,-0.48825854063034,0.95110780000687,-0.62168306112289,0.9335943144194938,-0.3272775727875378,0.1510680208400806
216,268.18541799999997,-0.18967340886593,0.95997029542923,-0.50424182415009,0.9336350888622049,-0.32901253019060406,0.1525015368753551
217,268.19375099999996,-0.25498965382576,0.95261895656586,-0.36536142230034,0.9331255542988682,-0.3326363952792418,0.15134394168853774
218,268.202084,-0.15104715526104,0.89421850442886,-0.50434428453445,0.9350275506778642,-0.33110801054506833,0.15358832417702142
219,268.210417,-0.3929223716259,0.78225874900818,-0.4075993001461,0.9338620244240275,-0.3324619604616745,0.15173442509709592
220,268.21875,-0.46681943535805,0.74301767349243,-0.28685382008553,0.9341801429281429,-0.33110003082119693,0.15281684544621632
221,268.227083,-0.51092720031738,0.64327591657639,-0.24236190319061,0.9341153320001092,-0.33157441080832956,0.15201105146991936
222,268.235416,-0.30009636282921,0.63423401117325,-0.20801320672035,0.9349941720767898,-0.3292832812484428,0.15327959644551223
223,268.243749,-0.18734250962734,0.42842367291451,-0.22876073420048,0.9351847123126592,-0.3299321447099959,0.15304674907606428
224,268.252082,-0.04661791399121,0.22591757774353,-0.35734421014786,0.932453213905802,-0.3286555835178918,0.1482354013287296
225,268.26041499999997,0.08412995189428,0.258934289217,-0.25862696766853,0.9324628479626713,-0.32688929110157244,0.1530883506852755
226,268.26874799999996,0.25477197766304,0.1471793949604,-0.29794478416443,0.9316979622354316,-0.32817025573886116,0.1531153674028357
227,268.277081,0.3087155520916,0.06541875004768,-0.30363112688065,0.9313082208438794,-0.3307343259149663,0.1509665956302561
228,268.285414,0.18863601982594,-0.03169761225581,-0.39315286278725,0.9321563097895408,-0.3297971462716857,0.14767044660996428
229,268.293747,-0.07125879824162,0.02886724472046,-0.31139224767685,0.9313833470247235,-0.32832863379497956,0.14713835959531835
230,268.30208,-0.11180613189936,-0.02273263223469,-0.211650416255,0.93167460694605,-0.32792862580747034,0.14837262581805816
231,268.310413,-0.24612720310688,0.08145326375961,-0.25542518496513,0.932651149983309,-0.32834106562088977,0.14929366355039592
232,268.318746,-0.25706446170807,0.10276431590319,-0.14005865156651,0.9320351542258745,-0.32875781156578876,0.14771715718872652
233,268.32707899999997,-0.39030969142914,-0.01540696062148,-0.06769842654467,0.9334262536496529,-0.32569741716190304,0.14819668263805202
234,268.33541199999996,-0.32189407944679,0.07412758469582,-0.11718511581421,0.9333817812861224,-0.32812279097887953,0.14807479722159284
235,268.343745,-0.2612139582634,-0.01924909837544,0.01492029149085,0.9304651922109173,-0.32813154921239696,0.14840251328993775
236,268.352078,-0.29138752818108,0.10496713221073,0.03618010133505,0.9292389422046898,-0.3280841087808418,0.14294518499958264
237,268.360411,-0.17263993620872,0.09087929874659,0.06719894707203,0.9331897813446663,-0.3306153599096806,0.1441772738281561
238,268.368744,-0.31692492961884,0.3047069311142,0.03121094405651,0.9365450606054194,-0.3346910038772898,0.14271745876390102
239,268.377077,-0.42842367291451,0.45378175377846,0.09066158533096,0.9403537244212866,-0.33595218950388367,0.14661360760124387
240,268.38541,-0.70375102758408,0.2665673494339,0.1405581086874,0.9420856164426225,-0.33423265632317956,0.14757628343543266
241,268.393743,-0.89462840557098,0.13721546530724,0.06043678894639,0.9423031125749857,-0.3328604844151714,0.149757205223551
242,268.40207599999997,-0.99065619707108,0.19154323637486,0.06658420711756,0.9377792903355193,-0.33100291174285307,0.1495681368574806
243,268.410409,-0.8178625702858,0.00573758874089,0.11156281083822,0.9383777696259163,-0.33091751896605204,0.14897255264982856
244,268.418742,-0.35580730438232,-0.11958004534245,0.22746720910072,0.9362524382922112,-0.32982342097223977,0.14870541436331633
245,268.427075,0.02511475607753,-0.1542104780674,0.08384819328785,0.9372938895712091,-0.3304058921580408,0.1447516679763796
246,268.435408,0.34767478704453,-0.23909606039524,-0.05973239243031,0.9362217844748979,-0.33041827532709894,0.14622965637518467
247,268.443741,0.67366719245911,-0.44226822257042,-0.28608539700508,0.9317359145806754,-0.33013144317938364,0.14379549999626326
248,268.452074,1.25592994689941,-0.55194836854935,-0.50611162185669,0.930835178920201,-0.32807316098894385,0.14390570776803163
249,268.460407,1.56752729415894,-0.8532230257988,-0.5281143784523,0.9319767660024214,-0.3268415587288989,0.14484642719735918
250,268.46873999999997,1.69867217540741,-0.99512588977814,-0.6638697385788,0.9303368354330255,-0.3285759079213041,0.14225021916992858
251,268.47707299999996,1.78212320804596,-1.12621939182281,-0.4875156879425,0.9261362893240795,-0.327753728749801,0.1458238703863959
252,268.485406,1.92289888858795,-1.26289701461792,-0.5293949842453,0.9282178294901948,-0.3282619739065367,0.1451746176700204
253,268.493739,1.99802565574646,-1.22201681137085,-0.51302748918533,0.9296941757202153,-0.3268916509589367,0.14146735473555
254,268.502072,1.78194391727448,-1.13843762874603,-0.37934681773186,0.9300444077472295,-0.32795161617045504,0.14093781004146633
255,268.510405,1.81150281429291,-1.0755033493042,-0.35754916071892,0.930428602257553,-0.3286769682047316,0.1407283909466806
256,268.518738,1.86070764064789,-1.09315156936646,-0.19359236955643,0.9333555065855683,-0.3258382544225571,0.14089168334493876
257,268.527071,2.00681114196777,-0.95637130737305,-0.03250446543097,0.9354296509100469,-0.3275972483109459,0.13809216265775714
258,268.53540399999997,2.02919793128967,-0.95657634735107,-0.05842606723309,0.9361598929580376,-0.33080898985570817,0.13787761026499185
259,268.54373699999996,1.89992296695709,-0.84418112039566,-0.00363722117618,0.9347589648499786,-0.3301756236017969,0.13800391129085
260,268.55207,1.66265845298767,-0.82018059492111,0.03256849944592,0.9368354447033937,-0.33058650639592346,0.14166259035772244
261,268.560403,1.50326085090637,-0.65888768434525,0.00559670990333,0.9366056870441051,-0.3310875989952867,0.13902282228275203
262,268.568736,1.32772672176361,-0.59651708602905,-0.01521485671401,0.9351093915044041,-0.3305277532460734,0.13829292083273162
263,268.577069,1.19665861129761,-0.36376059055328,-0.03734556213021,0.9365085679657601,-0.3327298164367673,0.13907023838588162
264,268.585402,1.0747092962265,-0.34201407432556,-0.1203612908721,0.9366005294177,-0.33201602040504896,0.13888779951601632
265,268.593735,1.06966328620911,-0.24619120359421,-0.19640995562077,0.9386420736507489,-0.3319145465383724,0.14047453598100304
266,268.602068,0.94983983039856,-0.0213494617492,-0.2391344755888,0.937182270750707,-0.3309021920573959,0.14415605944030102
267,268.61040099999997,1.00424444675446,-0.09155807644129,-0.20481142401695,0.9373655124586459,-0.3301124913351878,0.14602386221593774
268,268.61873399999996,1.14120388031006,-0.11271543800831,-0.18729127943516,0.9338759402839499,-0.32909860416334485,0.14308018343789286
269,268.627067,1.12145519256592,-0.21980854868889,-0.30701217055321,0.9309650927173846,-0.32915993612639793,0.1414977895970245
270,268.6354,1.1827244758606,-0.14378550648689,-0.26126518845558,0.9312425340924949,-0.32763962842980204,0.14321086358050916
271,268.643733,1.20585405826569,0.00566074578092,-0.07082335650921,0.9288820928456837,-0.32909646326181835,0.14265907054044796
272,268.652066,1.04699456691742,-0.01909540966153,-0.0173408370465,0.9278587419159561,-0.32789512556426426,0.1424722403896102
273,268.660399,0.9786302447319,0.01534292660654,0.00977183133364,0.9286602175965603,-0.32981325168998876,0.14120297772543774
274,268.668732,0.96889680624008,0.18506282567978,-0.03644905611873,0.9290441201657662,-0.32994601191306633,0.1473551137106755
275,268.67706499999997,0.8180034160614,0.1236142963171,0.08958578109741,0.9285112303130478,-0.33105468263431426,0.146553711015351
276,268.68539799999996,0.50983852148056,0.19776751101017,0.31219908595085,0.9322693883156286,-0.3293825898851663,0.14561436614211734
277,268.693731,0.27405950427055,0.248739823699,0.47820493578911,0.9329737449178888,-0.32968620864712445,0.14613477551207246
278,268.702064,0.07980114221573,0.24494890868664,0.58916580677032,0.9333934589308133,-0.3305686250024908,0.14671649251665408
279,268.710397,-0.07889184355736,0.34294897317886,0.75084286928177,0.9327991641297632,-0.33134007940486937,0.1472981730285959
280,268.71873,-0.22863265872002,0.37578642368317,1.02038145065308,0.9357312260841836,-0.33285462126439896,0.14925939696175713
281,268.727063,-0.0205426197499,0.41994541883469,1.01185202598572,0.9323650476883867,-0.3338115069330959,0.14570559774126327
282,268.735396,0.08415556699038,0.482725918293,0.86100977659225,0.9364429785280817,-0.3328451331780877,0.1444925337421653
283,268.743729,0.17150010168552,0.3886191546917,0.94989109039307,0.933891121222048,-0.33459169524056526,0.14559757952787447
284,268.75206199999997,0.14232549071312,0.37460815906525,0.67855948209763,0.9336343103525591,-0.3334202815075306,0.14885139708616327
285,268.768728,0.11478378623724,0.14986887574196,0.29043337702751,0.4684553827558245,-0.1678451105039949,0.07328890416086938
287,268.777061,-0.20255735516548,0.45821300148964,0.22434225678444,0.9359553395485387,-0.33548951148986833,0.1458318744386949
288,268.785394,-0.4609537422657,0.355115711689,-0.01885207369924,0.9331489095882489,-0.3347034357032,0.14778356162869183
289,268.793727,-0.67649751901627,0.33132013678551,-0.12671361863613,0.9355706584696867,-0.33498367484735,0.14670626241333673
290,268.80206,-0.68715304136276,0.45662492513657,-0.35480836033821,0.9348933550776265,-0.3344895645063755,0.1514745853385143
291,268.810393,-0.83389693498611,0.35124796628952,-0.36935722827911,0.9340269711552835,-0.33340933371563364,0.14664422492591733
292,268.81872599999997,-0.76107573509216,0.48782309889793,-0.36167296767235,0.934426249289999,-0.33276047025408056,0.14556546600497447
293,268.82705899999996,-0.88632935285568,0.44192236661911,-0.27281719446182,0.9334145760049621,-0.33222616935262855,0.14456772074407448
294,268.835392,-0.90610355138779,0.5344922542572,-0.25657778978348,0.9319139986622091,-0.33000663835175204,0.1464420435379959
295,268.843725,-0.97311037778854,0.57824128866196,-0.22599439322948,0.933362026603854,-0.33075330208758874,0.14552605395414386
296,268.852058,-1.02864193916321,0.64555549621582,-0.07397390156984,0.9324307344397723,-0.328772408621652,0.14705296681851734
297,268.860391,-1.02918004989624,0.56110543012619,-0.09589970111847,0.9334963195177969,-0.33083942471718264,0.14635958233658164
298,268.868724,-0.9361235499382,0.4172046482563,-0.13339895009995,0.9322614085917571,-0.33074743893681735,0.14395825716913976
299,268.877057,-0.98568689823151,0.41835731267929,-0.08250345289707,0.9330985984023734,-0.33070367209765406,0.14259922261140814
300,268.88539,-1.04216635227203,0.50972330570221,-0.18239898979664,0.9312615102651162,-0.32967382547806734,0.14448597723123976
301,268.89372299999997,-1.11083805561066,0.49453404545784,-0.25516897439957,0.9318694289849725,-0.3304409007636867,0.14616615918217857
302,268.902056,-1.04224324226379,0.50124496221542,-0.28242254257202,0.9325927617598551,-0.3299993398238204,0.14609755301962143
303,268.910389,-1.07910203933716,0.50424182415009,-0.29766300320625,0.9331343125323855,-0.330086922159,0.14568954097981326
304,268.918722,-1.09664785861969,0.43687644600868,-0.40029928088188,0.9317943028041296,-0.32864247049604184,0.144526106970651
305,268.927055,-1.10584342479706,0.45808494091034,-0.57683253288269,0.9336547462307673,-0.32725786676212243,0.14463265331423977
306,268.935388,-1.16480720043182,0.5075204372406,-0.6648942232132,0.9344984560596703,-0.328756351860202,0.1453727727033653
307,268.943721,-1.14938759803772,0.50501024723053,-0.64271241426468,0.9352663585117886,-0.32761846269879996,0.1403394888858408
308,268.952054,-1.08107435703278,0.53733539581299,-0.67273223400116,0.9347649009860295,-0.32894976285039185,0.1444465530161959
309,268.96038699999997,-0.97544133663177,0.54268878698349,-0.60388118028641,0.9354947537791968,-0.32775932428788157,0.14622089814166633
310,268.96871999999996,-0.98975962400436,0.55790364742279,-0.68620532751083,0.9360845721497825,-0.3256499524019204,0.1453888294648153
311,268.977053,-0.78540933132172,0.55777561664581,-0.57204276323318,0.9366071467496908,-0.32629224718833466,0.14345246918347448
312,268.985386,-0.83860999345779,0.57135111093521,-0.68356710672379,0.9360057480481203,-0.32541931891927955,0.14644497511338264
313,268.993719,-0.67708671092987,0.5067263841629,-0.64455658197403,0.9344058134117907,-0.3273038718165183,0.14320356505257753
314,269.002052,-0.65311169624329,0.44340801239014,-0.76089644432068,0.9356305063987265,-0.3268097371471173,0.1438998689456857
315,269.010385,-0.78366750478745,0.43057525157928,-0.62767678499222,0.9320526706929111,-0.32593461931968265,0.1449136466396102
316,269.018718,-0.72383266687393,0.41187688708305,-0.67644637823105,0.9319023210175182,-0.32576456361887446,0.1414533050692816
317,269.027051,-0.64950013160706,0.53718173503876,-0.81025499105453,0.9330832228368642,-0.32655939763906017,0.14127668069333468
318,269.03538399999996,-0.7177876830101,0.47770547866821,-0.73425763845444,0.9338255317843693,-0.3272162894813377,0.14169343880244692
319,269.043717,-0.82764714956284,0.5958639383316,-0.64114987850189,0.9348378862653459,-0.32642362069110503,0.1416029613845204
320,269.05205,-0.86737489700317,0.58287751674652,-0.78553742170334,0.9332452501569478,-0.327449842375152,0.14454946226003265
321,269.068716,-0.44938898086548,0.3034006357193,-0.31081596016884,0.4678240114328816,-0.16260820992138877,0.07270061848114898
323,269.077049,-0.88666242361069,0.58136636018753,-0.61095076799393,0.9386070407166774,-0.3283702597326163,0.1436210286860561
324,269.085382,-0.90638530254364,0.47803843021393,-0.5747834444046,0.938940534786302,-0.3273549615120398,0.14735002906955
325,269.093715,-0.69040596485138,0.48257219791412,-0.66105210781097,0.9409930754681021,-0.32487117514318364,0.14240803767223773
326,269.10204799999997,-0.56584411859512,0.36986956000328,-0.59263664484024,0.9392609888193559,-0.324001166285301,0.1451742405794102
327,269.11038099999996,-0.33523911237717,0.32760605216026,-0.6168931722641,0.9355370852412009,-0.3249726246814337,0.1435663140549949
328,269.118714,-0.17192271351814,0.31551614403725,-0.57731926441193,0.934548864559251,-0.3276461971049408,0.1395614536441102
329,269.127047,0.05626165494323,0.40175926685333,-0.7348467707634,0.9370654943038009,-0.3269681395316612,0.13862793542900814
330,269.13538,0.07575409859419,0.39996626973152,-0.70964241027832,0.9420899955593806,-0.32766371357197654,0.13820314893917143
331,269.143713,-0.08224731683731,0.4761942923069,-0.72695767879486,0.9394441332135878,-0.33007962363106835,0.14091977051326224
332,269.152046,-0.08155572414398,0.50042527914047,-0.65067839622498,0.9400675248126592,-0.32568790474716525,0.14706610416879487
333,269.160379,-0.21528762578964,0.59335374832153,-0.5947625041008,0.9384289566351438,-0.3244354043688092,0.14557272804026733
334,269.16871199999997,-0.16464829444885,0.59161186218262,-0.50818634033203,0.9369224431563398,-0.3221180730936479,0.14423050442520408
335,269.17704499999996,-0.01352431625128,0.47988268733025,-0.41999658942223,0.9349678000625294,-0.3245536891781551,0.14057087654970102
336,269.185378,0.31837210059166,0.42614397406578,-0.57890725135803,0.9318533722235233,-0.32509964339587144,0.14297875822806835
337,269.193711,0.36045628786087,0.56530618667603,-0.59514671564102,0.9327328934961439,-0.32584338772053567,0.14302911807079693
338,269.202044,0.30943274497986,0.61246192455292,-0.61714935302734,0.9328781828588366,-0.32688350093607954,0.14119859860867856
339,269.210377,0.33071818947792,0.34064373373985,-0.59950113296509,0.9300322435340103,-0.32782639775957345,0.14357943924105918
340,269.21871,0.36885777115822,0.30104407668114,-0.52501493692398,0.9310805067724113,-0.3267411796414122,0.14255179434406529
341,269.227043,0.37687504291534,0.23203934729099,-0.57632029056549,0.9311848270649815,-0.3262601336654347,0.14175474643707245
342,269.235376,0.19053150713444,0.15253277122974,-0.4066516160965,0.9305738916202468,-0.3287096169530132,0.14071466971416838
343,269.24370899999997,-0.03716625645757,0.18706075847149,-0.42957630753517,0.9309104997284561,-0.329859913611899,0.1390629276937367
344,269.25204199999996,-0.03744801133871,0.11777426302433,-0.43216335773468,0.931246037385902,-0.331128422094851,0.1430546872469847
345,269.260375,-0.03350342065096,0.18160490691662,-0.28252500295639,0.9301389966692244,-0.333215192872651,0.13781775017173875
346,269.268708,0.02076033689082,0.19589765369892,-0.27071684598923,0.9322606300821111,-0.3315123733209102,0.14122121188105408
347,269.277041,0.09980586916208,0.3063206076622,-0.24638333916664,0.9358669787037133,-0.33143573877762755,0.1392315480173847
348,269.285374,0.1679141074419,0.16416162252426,-0.23823799192905,0.9372479575020928,-0.333458258181202,0.14112633101794184
349,269.293707,0.13248962163925,0.23234671354294,-0.34051561355591,0.9376435377159896,-0.33689890589032856,0.14203429222106936
350,269.30204,-0.03724309802055,0.31436347961426,-0.35462906956673,0.9382917443100285,-0.3369631329361275,0.13935050185845815
351,269.31037299999997,-0.38093489408493,0.24354013800621,-0.6616924405098,0.9379991219968213,-0.3389287481502612,0.14017305812057143
352,269.31870599999996,-0.44263955950737,0.10281553119421,-0.68425869941711,0.9374493968730071,-0.336816432524701,0.14097888858950916
353,269.327039,-0.57711428403854,0.27768391370773,-0.83289796113968,0.9363043064973795,-0.33590477340075403,0.14255037113111838
354,269.335372,-0.85461890697479,0.13572983443737,-0.88389599323273,0.9357466016496928,-0.33548367266752244,0.13949211762875915
355,269.343705,-0.99785369634628,0.08416837453842,-0.96386361122131,0.9362086471246215,-0.3323400507167898,0.14021396636962855
356,269.352038,-0.93189704418182,0.37775871157646,-0.90894675254822,0.9374633127329295,-0.32946211951119586,0.1411227182466153
357,269.360371,-0.83118188381195,0.19602574408054,-0.84498804807663,0.9358684384092988,-0.3270944283933051,0.14249188559395917
358,269.368704,-0.77065551280975,0.25181356072426,-0.72974956035614,0.9354977705040755,-0.3267907609744949,0.14142999843675305
359,269.377037,-0.7111279964447,0.39476656913757,-0.64709240198135,0.9357853325045836,-0.3259338894668888,0.14418238279770815
360,269.38536999999997,-0.7428640127182,0.43977078795433,-0.59263646602631,0.9359918321881978,-0.3258776908018153,0.14089421350128775
361,269.39370299999996,-0.67234802246094,0.51717704534531,-0.37053549289703,0.9363363227065724,-0.32424569129943875,0.14051324250746733
362,269.402036,-0.62670344114304,0.44166618585587,-0.32494217157364,0.9327672452342755,-0.32607840031993673,0.14150001564804388
363,269.410369,-0.58095639944077,0.48372483253479,-0.4510922729969,0.933281742796606,-0.3289410289453,0.14291310796932344
364,269.418702,-0.68459165096283,0.43820831179619,-0.34033632278442,0.9328540490598091,-0.32721118051178566,0.14240215019303876
365,269.427035,-0.63195443153381,0.39694377779961,-0.40009433031082,0.9329497084325673,-0.32712067876543366,0.14569829921333163
366,269.435368,-0.68195337057114,0.36961340904236,-0.2983033657074,0.9345422472272602,-0.3283432308508428,0.14580486988534694
367,269.443701,-0.67042696475983,0.28344711661339,-0.30588516592979,0.9349992323894888,-0.3270659398059459,0.1459975388585306
368,269.45203399999997,-0.51110643148422,0.26585012674332,-0.32361024618149,0.935387514075454,-0.32690172292748265,0.14525748029047142
369,269.46036699999996,-0.53182828426361,0.2962030172348,-0.34133526682854,0.9350320271083284,-0.32881690531360813,0.14504357260100711
370,269.4687,-0.54204845428467,0.29945605993271,-0.34484449028969,0.9333715633470182,-0.3289658196118408,0.14339260909022142
371,269.477033,-0.62808668613434,0.1292238086462,-0.41574463248253,0.9357728763502469,-0.3317546844482418,0.1444866949198194
372,269.485366,-0.71481651067734,0.15063731372356,-0.31577229499817,0.9333342921977141,-0.3277462112660306,0.14134526252746632
373,269.493699,-0.56000399589539,0.15903878211975,-0.4778847694397,0.9361845133255938,-0.33086569941773675,0.14191094709902344
374,269.502032,-0.60021841526031,0.07059283554554,-0.5177149772644,0.9343539452066224,-0.32942857061113673,0.1409919894471459
375,269.510365,-0.54074209928513,0.02950759790838,-0.51307874917984,0.9354115505607765,-0.3296161427789806,0.14208611176938468
376,269.518698,-0.38108855485916,0.05307269096375,-0.47995954751968,0.936520245610451,-0.32790675455210205,0.13994609823032345
377,269.52703099999997,-0.35455217957497,-0.05293181538582,-0.56768822669983,0.9343591028330275,-0.3285308030186867,0.13888996474596937
378,269.535364,-0.40134945511818,-0.01264062523842,-0.4935350716114,0.936069780466508,-0.32876214202569487,0.1367222654576204
379,269.543697,-0.3180775642395,0.03580869734287,-0.61084818840027,0.9362312239043571,-0.32829725012487243,0.13707401801128774
380,269.55203,-0.12161638587713,0.08813858032227,-0.67467892169952,0.9356108490301643,-0.32778413928284894,0.13606167569452446
381,269.560363,-0.20399177074432,0.08716524392366,-0.66714835166931,0.9354785997040417,-0.3286395267564418,0.13437420737986633
382,269.568696,-0.10637591779232,0.17512452602386,-0.77372920513153,0.935210889699508,-0.3257419381822857,0.13568504732482242
383,269.577029,1.280711695e-05,0.20952445268631,-0.72139930725098,0.9372910674737427,-0.3249748142398132,0.13289835988258875
384,269.585362,-0.00776111334562,0.26357048749924,-0.62252843379974,0.9394558108582785,-0.3250529084886826,0.1328735448876204
385,269.59369499999997,-0.00619864463806,0.41310632228851,-0.49609649181366,0.9375866091981223,-0.3268958597767112,0.1328574881261704
386,269.60202799999996,-0.13701055943966,0.63869100809097,-0.5208398103714,0.9349029891344969,-0.3258025159641183,0.13351437996844895
387,269.610361,-0.28721240162849,0.70802867412567,-0.42593908309937,0.934014612314652,-0.32783449912557755,0.13492305668032856
388,269.618694,-0.4407953619957,0.9176299571991,-0.34589460492134,0.9348129739566724,-0.3240150578167969,0.13732508737213775
389,269.627027,-0.54614669084549,0.9637867808342,-0.17422799766064,0.9359385042774439,-0.32640247928852956,0.13398734890684796
390,269.63536,-0.42150783538818,1.07531118392944,-0.03176164999604,0.9367983681815009,-0.3242018758034224,0.13791046580489796
391,269.643693,-0.33777490258217,1.00735652446747,-0.05955309420824,0.9356086108149315,-0.32396832290960814,0.13704628360514692
392,269.652026,-0.30383604764938,1.04424107074738,0.06814667582512,0.9361823724240672,-0.32599957621827447,0.1389811963451153
393,269.66035899999997,-0.20317210257053,1.14523804187775,0.0340541228652,0.9377808473548112,-0.3274965286254888,0.13741050447736428
394,269.66869199999996,-0.18782919645309,1.09990084171295,0.11763337254524,0.9374647724385162,-0.3288293371395194,0.14105698283837753
395,269.677025,-0.18362845480442,1.07887160778046,0.05357217416167,0.9367633352474284,-0.32923148602855407,0.142836436933401
396,269.685358,-0.15043239295483,1.13793802261353,0.1835900247097,0.9360312442390285,-0.3299613874785755,0.14366631605187244
397,269.693691,-0.27724847197533,1.09810781478882,0.18141283094883,0.9357618799014968,-0.3298869181652459,0.1425605404133704
398,269.702024,-0.30959928035736,0.93791645765305,0.05024232342839,0.9345583039887102,-0.33057083888929695,0.14361740375051732
399,269.710357,-0.27671059966087,0.79934352636337,0.17839035391808,0.9332934204412969,-0.330767899143452,0.1426619899516204
400,269.71869,-0.38357317447662,0.85587412118912,0.17790366709232,0.9349904741559713,-0.3326261530117112,0.1429306122721459
401,269.727023,-0.39205148816109,0.96714228391647,0.1927343159914,0.9338532661905091,-0.3321969995693285,0.14496769223894387
402,269.73535599999997,-0.50703376531601,0.92267596721649,0.12406256049871,0.93476626337791,-0.3333546190845724,0.1416043602690408
403,269.74368899999996,-0.64383941888809,0.70431464910507,0.21307203173637,0.933448246547154,-0.33410203700162955,0.1443326716520347
404,269.752022,-0.67332136631012,0.80195605754852,0.25154459476471,0.9360487607060642,-0.3336210153540785,0.14719017914363267
405,269.760355,-0.75065076351166,0.77700781822205,0.19101816415787,0.9347327874631295,-0.33439760305443567,0.14622381755283878
406,269.768688,-0.69926857948303,0.698013484478,0.19037781655788,0.9332489480777661,-0.3329378001543939,0.1443341678502612
407,269.777021,-0.62393712997437,0.61763602495193,0.23220583796501,0.935051003280951,-0.33293490507164797,0.14184963946439794
408,269.785354,-0.59717029333115,0.48200863599777,0.24803544580936,0.9324555494347396,-0.3334217412131173,0.14158031161950507
409,269.793687,-0.65070402622223,0.46899658441544,0.24578137695789,0.9330533475291968,-0.33272397761442246,0.13680027455699692
410,269.80201999999997,-0.71561056375504,0.4729668200016,0.05651781335473,0.9353626990804866,-0.33530337469918364,0.14007237492775407
411,269.81035299999996,-0.82774966955185,0.4415126144886,-0.00645478721708,0.935499132895956,-0.33650768046476426,0.1410752291582071
412,269.818686,-0.95428395271301,0.53226381540298,0.01661083102226,0.9329467890213948,-0.3334896175228816,0.13836590611204794
413,269.827019,-0.98614805936813,0.47317177057266,0.0060321521014,0.9337635429538029,-0.3325546274379806,0.14024022890596938
414,269.835352,-1.29961490631104,0.54233008623123,-0.08865085989237,0.9345860383948499,-0.33118756449952447,0.1386819323714898
415,269.843685,-1.22830498218536,0.59563338756561,-0.16221491992474,0.933298578067702,-0.328911080652354,0.13813015149564184
416,269.852018,-1.42796790599823,0.5561106801033,-0.18987831473351,0.9344152528412489,-0.32692213447726526,0.13897754708114896
417,269.860351,-1.33465528488159,0.56881535053253,-0.2464601546526,0.9352568217686243,-0.3245668265284326,0.13983224119458876
418,269.868684,-0.991603910923,0.6142805814743,-0.24441100656986,0.9331788822096224,-0.3247821331024173,0.13390998451077243
419,269.87701699999997,-0.7943742275238,0.57783150672913,-0.34492126107216,0.9328621260973866,-0.32272533494598976,0.13541863889110306
420,269.88534999999996,-0.70364862680435,0.75375008583069,-0.274712651968,0.9329636242924907,-0.3234063605872949,0.13104956977221427
421,269.893683,-0.39835253357887,0.77951794862747,-0.43582618236542,0.9346721610244438,-0.32497551976417954,0.1335369810766102
422,269.902016,-0.33518785238266,0.93025779724121,-0.35547435283661,0.9362882497359295,-0.3234515384751918,0.1323502282707061
423,269.910349,-0.33121764659882,0.94460159540176,-0.52639812231064,0.9325475108866784,-0.32214361794140917,0.1356062232231612
424,269.918682,-0.30306762456894,0.96632260084152,-0.53446662425995,0.9353108308753183,-0.32012474780179995,0.13674849150132143
425,269.927015,-0.12945434451103,0.89785569906235,-0.65682578086853,0.9324891226632254,-0.31698333973787246,0.13523325628163876
426,269.935348,-0.0147281838581,0.85774385929108,-0.67542171478271,0.9298148447153519,-0.31699866664652954,0.139068048827502
427,269.94368099999997,0.38876003026962,0.95164567232132,-0.76281756162643,0.9297215208715325,-0.31573964624988776,0.1376907801141541
428,269.95201399999996,0.66311413049698,1.00138854980469,-0.88645738363266,0.9285126900186347,-0.31605640236212246,0.1319735999010051
429,269.960347,0.95332336425781,0.94457602500916,-0.92677420377731,0.9292222042473,-0.3164184093475337,0.1309079783303398
430,269.96868,1.29468429088593,0.92854160070419,-1.0075615644455,0.9278104743179009,-0.3184437021917224,0.13225589479718877
431,269.977013,1.57149732112885,0.98033356666565,-1.09664785861969,0.9261856273728968,-0.3185158116476878,0.13395691404537244
432,269.985346,1.66660284996033,0.85625827312469,-1.14616012573242,0.927303275283502,-0.3188634891899265,0.13528415134974897
433,269.993679,1.68209958076477,0.78174644708633,-1.06288826465607,0.9293846208222061,-0.3192292427530092,0.13925542636793467
434,270.002012,1.75043833255768,0.80761671066284,-1.12692379951477,0.928481744260204,-0.3216054974770061,0.13629609224747652
435,270.010345,1.81188678741455,0.88612443208694,-1.18826985359192,0.9320974349975581,-0.32087997514374383,0.13596737871364692
436,270.01867799999997,1.74098658561707,0.88010507822037,-1.16104197502136,0.9345138316251795,-0.3214775056255102,0.132654893155001
437,270.027011,1.77256906032562,0.91278886795044,-1.2001805305481,0.9348267925028898,-0.32315784571122136,0.13737774625116428
438,270.035344,2.03452587127686,0.95840775966644,-1.16321921348572,0.935506626051299,-0.32406563661536425,0.13538263281997345
439,270.043677,2.28592944145203,1.01698756217957,-1.20292127132416,0.9355075018746509,-0.325280208976901,0.1344482752741602
440,270.05201,2.28920841217041,0.9584333896637,-1.26951837539673,0.9399093900408061,-0.3271204111527428,0.1357272206520551
441,270.060343,2.36786961555481,0.9659383893013,-1.35765707492828,0.9395054408482142,-0.32744074354366426,0.1329036756437653
442,270.068676,2.40728998184204,0.92177951335907,-1.37522828578949,0.940988890978755,-0.3275188377925326,0.13640194523091223
443,270.077009,2.19799613952637,0.90072458982468,-1.52609622478485,0.940470695495605,-0.32767466136387446,0.1352293029123418
444,270.08534199999997,2.24661183357239,0.97833579778671,-1.61679625511169,0.9395069978675061,-0.3268805085396275,0.13322429997580407
445,270.09367499999996,2.11229062080383,1.04557299613953,-1.69942736625671,0.9372082535101438,-0.3268119996907755,0.13628131272841426
446,270.102008,2.02077126502991,1.07018828392029,-1.66953587532043,0.936182177796656,-0.32818244428050714,0.13599479685024385
447,270.110341,2.03124737739563,1.14001274108887,-1.48424243927002,0.935226946460957,-0.3251154325446306,0.13712139762177752
448,270.118674,2.04090356826782,1.2141147851944,-1.44018590450287,0.9362241200038366,-0.32428349767412445,0.13921628192979488
449,270.127007,2.17747902870178,1.14275348186493,-1.49948310852051,0.9362887363044581,-0.32623651076336324,0.13971218041011224
450,270.13534,2.04886984825134,1.30168974399567,-1.46280336380005,0.935581946859554,-0.32630161363251325,0.1407994299518816
451,270.143673,1.94692516326904,1.29920530319214,-1.36498260498047,0.9352437817320529,-0.3246781534078173,0.14027580922963673
452,270.152006,1.84807968139648,1.31818532943726,-1.1877064704895,0.933252937939702,-0.32691773103207955,0.13923968587602856
453,270.16033899999996,1.5523636341095,1.29090631008148,-1.09559762477875,0.9357125418526785,-0.3292488808534581,0.14380211732825407
454,270.168672,1.34242928028107,1.35645318031311,-1.00697243213654,0.9357109848333865,-0.33046831890028366,0.14157257517989796
455,270.177005,1.15426707267761,1.17723023891449,-1.07292902469635,0.9348012963119816,-0.3295082462077234,0.14086292714488774
456,270.185338,1.10793089866638,1.19162547588348,-0.99347364902496,0.9341424825240152,-0.33052298487449183,0.1406493113965408
457,270.193671,1.02179026603699,1.02398037910461,-0.96094369888306,0.9324087415422713,-0.33071963154539796,0.14207177016199896
458,270.202004,0.98147344589233,0.95087718963623,-0.97321283817291,0.9332328913163164,-0.3300248846715806,0.14215983906570714
459,270.210337,1.0247358083725,0.60541808605194,-0.87457239627838,0.9356071511093449,-0.33201599607662247,0.13927679889056122
460,270.21867,1.05455076694489,0.55710959434509,-0.88261520862579,0.9350072121133611,-0.3316422871180939,0.1336231401988439
461,270.22700299999997,1.06963765621185,0.69952470064163,-0.74084055423737,0.9344502857753203,-0.3341516183347122,0.1366755062220051
462,270.23533599999996,1.0047824382782,0.59268772602081,-0.68420743942261,0.9327387323184887,-0.33466764858790815,0.1358127837278408
463,270.243669,0.87064057588577,0.53994804620743,-0.81509608030319,0.9334291730608255,-0.33548805178428165,0.1351201169344847
464,270.252002,0.83967298269272,0.50175726413727,-0.66087281703949,0.9367326814301162,-0.3351530250237908,0.13423989013749693
465,270.260335,0.66421550512314,0.51856011152267,-0.55065482854843,0.9367677143641876,-0.33683105390899076,0.1310999417791561
466,270.268668,0.67668956518173,0.49425223469734,-0.60805630683899,0.936499128536302,-0.334927451853849,0.12991385800497857
467,270.277001,0.67113137245178,0.48410904407501,-0.44071853160858,0.936765476148956,-0.33178460841276225,0.12877307376083058
468,270.285334,0.55381816625595,0.43618479371071,-0.31477332115173,0.9413148918930366,-0.3340860045686061,0.13141235526727144
469,270.29366699999997,0.46742132306099,0.4410771727562,-0.16787570714951,0.9390814450322367,-0.3377652654842459,0.13052622882687345
470,270.30199999999996,0.21422466635704,0.56154090166092,-0.10145797580481,0.9390230568087826,-0.3369930569006469,0.1256491699997255
471,270.310333,0.2161200940609,0.40301436185837,0.12378077208996,0.9382974858186682,-0.33811710318740507,0.12540685887239386
472,270.318666,0.27505847811699,0.46648651361465,0.1919658780098,0.9388077015779459,-0.3391586274516826,0.12376680666086631
473,270.326999,0.06307505816221,0.6430966258049,0.25305584073067,0.9385946818760459,-0.3384550007022153,0.12464559808069386
474,270.335332,-0.045798253268,0.65180546045303,0.3028499186039,0.9397726642842194,-0.33728794175751325,0.1258878440273051
475,270.343665,-0.13309155404568,0.67467886209488,0.40407729148865,0.9408214140911489,-0.34066144300966833,0.12530904643389693
476,270.351998,-0.2725610435009,0.71750593185425,0.27708196640015,0.9391462559602692,-0.3388294638419643,0.12511412708126735
477,270.360331,-0.59399408102036,0.84304130077362,0.15049642324448,0.9402361694647335,-0.3380974214904163,0.12501489142982347
478,270.36866399999997,-0.81565964221954,0.89667749404907,0.15600349009037,0.9409704013746611,-0.33924693963965613,0.12594404269237858
479,270.37699699999996,-1.13681101799011,1.03463578224182,0.09432441741228,0.9405659656135408,-0.33952647325943874,0.1274461405617847
480,270.38533,-1.17100596427917,1.04585480690002,-0.06534191220999,0.9381005228782182,-0.3373471328190398,0.12376242754410714
481,270.393663,-1.41808092594147,1.22664022445679,-0.19868962466717,0.9393060450651204,-0.3339104993002755,0.12468778357213876
482,270.401996,-1.36426532268524,1.29569602012634,-0.16679988801479,0.9389410213548306,-0.3349478634036316,0.12453643643126225
483,270.410329,-1.37727737426758,1.29036831855774,-0.07658655941486,0.9395994458879744,-0.3383445983030357,0.12709547062309387
484,270.418662,-1.28550159931183,1.28429770469666,-0.15573453903198,0.9401827442402744,-0.3384943640961939,0.12331109874102548
485,270.426995,-1.27722823619843,1.28647494316101,-0.14159548282623,0.9390988641855662,-0.3387292307250357,0.12884556030740507
486,270.43532799999997,-1.38816344738007,1.22579479217529,-0.01959488727152,0.9409775052751814,-0.33629945346287343,0.1289318897286245
487,270.44366099999996,-1.46498048305511,1.1913948059082,-0.0662896335125,0.9390818342870592,-0.3375004992193102,0.12808465227788773
488,270.451994,-1.59702181816101,1.19580054283142,-0.00284317997284,0.9392792837960376,-0.3358326396163632,0.12573472091129897
489,270.460327,-1.63569939136505,1.0969295501709,0.18917393684387,0.9412735335680908,-0.33689199661721936,0.1277322185282806
490,270.46866,-1.68341875076294,1.09618675708771,0.26248183846474,0.9383218142451072,-0.3345717945877388,0.12880544273220715
491,270.476993,-1.77227461338043,1.09114074707031,0.4522577226162,0.9406172499364733,-0.33633244280912444,0.12969473186804284
492,270.485326,-1.74266445636749,0.98563569784164,0.50650870800018,0.9389961009122887,-0.33632001098321423,0.12864556847786426
493,270.493659,-1.74292051792145,0.99631685018539,0.56803405284882,0.9388347547881458,-0.3339021546500071,0.12908138790909082
494,270.501992,-1.77985632419586,1.03225362300873,0.78626734018326,0.9382983616420204,-0.33023683392271735,0.12736580809768366
495,270.51032499999997,-1.61871719360352,0.91012495756149,0.8454362154007,0.939237244275151,-0.33190007112464076,0.1269265461941153
496,270.51865799999996,-1.6196391582489,0.9096382856369,0.90137773752213,0.9412378194380775,-0.3302263970277745,0.12734737931465612
497,270.526991,-1.44208133220673,0.85810244083405,0.93101340532303,0.9404545414204499,-0.33078101216530303,0.12534021114816427
498,270.535324,-1.49940609931946,1.03271484375,1.05104184150696,0.9400791051436438,-0.33142496128471527,0.12721609096137856
499,270.543657,-1.59609985351562,0.86363512277603,1.15754568576813,0.9393658929941602,-0.3326823273483592,0.1254455167420061
500,270.55199,-1.7355694770813,0.96573358774185,1.22170948982239,0.9414377017897,-0.33102750778198264,0.12570060029321836
501,270.560323,-2.04555296897888,0.99518996477127,1.45141780376434,0.9398363074477836,-0.32762072524245917,0.1251364484125255
502,270.568656,-2.11647868156433,1.00587093830109,1.69908177852631,0.9399376110154755,-0.33021926879882857,0.12429119372854386
503,270.57698899999997,-2.39206218719482,0.99844294786453,2.02807116508484,0.9391497592536775,-0.33063825295895916,0.12579937370456018
504,270.58532199999996,-2.50117897987366,1.08284199237823,2.19873881340027,0.9403523620294061,-0.33284912304002445,0.1232026061233204
505,270.593655,-2.82148480415344,1.14979720115662,2.47365617752075,0.941928941376355,-0.33186503819056934,0.12331867704586122
506,270.601988,-2.89543294906616,1.00031268596649,2.76322507858276,0.9422058961829356,-0.3308924850152459,0.12442778567878571
507,270.610321,-3.12030076980591,0.98043596744537,3.15030765533447,0.9424119092980214,-0.332287428330402,0.12294230412463775
508,270.618654,-3.28377056121826,0.98158878087997,3.42975902557373,0.9430395827001458,-0.33099072320120715,0.12350585995888264
509,270.626987,-3.40377354621887,0.85664254426956,3.5571129322052,0.9430912562779019,-0.33198025761818367,0.12497333847746529
510,270.63532,-3.47587704658508,0.67140030860901,3.7480411529541,0.9444523830803071,-0.3302210204455316,0.12635593511620305
511,270.643653,-3.43074488639832,0.42127728462219,3.84286499023438,0.9421345652366172,-0.3302747619395357,0.12531010472044693
512,270.65198599999997,-3.2776997089386,0.26008695363998,3.92019438743591,0.9430752968301581,-0.329602908114998,0.12423213647336326
513,270.660319,-3.04794025421143,-0.01848066970706,4.11739873886108,0.9446546009608673,-0.33106049712823366,0.11660730352207141
514,270.668652,-2.8839066028595,-0.19122307002544,4.03755903244019,0.9444579299615357,-0.33255521132021526,0.12135885199721937
515,270.676985,-2.75189113616943,-0.29024770855904,4.03392219543457,0.9501233392832233,-0.33432152806496124,0.12217223644256632
516,270.685318,-2.85485982894897,-0.467190772295,4.14134788513184,0.9515972526705999,-0.33556388348949184,0.12278829302106632
517,270.693651,-2.69346499443054,-0.7118324637413,4.21760177612305,0.9550757310828387,-0.3351106692333612,0.12673813469555917
518,270.701984,-2.85455298423767,-0.83065682649612,4.50086975097656,0.9527883724290499,-0.3312031346924449,0.12693495166545
519,270.710317,-2.6913902759552,-1.04146206378937,4.65332555770874,0.9511504854474745,-0.32791551278561937,0.1255327219865755
520,270.71864999999997,-2.62986493110657,-1.39076340198517,4.77163743972778,0.9495147393674264,-0.32828056082433565,0.12550009756672142
521,270.72698299999996,-2.30666422843933,-1.74155020713806,4.9460186958313,0.9488745124972591,-0.32873482120280406,0.12152501514979795
522,270.735316,-1.90705668926239,-1.81457662582397,4.99289417266846,0.9488251744484418,-0.32943180629185304,0.12241694391990203
523,270.743649,-1.58226811885834,-2.23508524894714,4.99624824523926,0.9488326676037846,-0.32763899589071427,0.12134792853374897
524,270.751982,-1.17400276660919,-2.58840799331665,4.89545679092407,0.9486169231181245,-0.32485353703401526,0.12097666458207754
525,270.760315,-0.90010988712311,-3.08342909812927,4.96318101882935,0.949068847967654,-0.3264318436992408,0.12403642644687551
526,270.768648,-0.81763207912445,-3.44674134254456,5.1111798286438,0.9482919926546061,-0.32703912988001016,0.12210147721426835
527,270.776981,-0.5165878534317,-4.0101261138916,5.10014009475708,0.9500276799104653,-0.3246335837305806,0.12356520915517957
528,270.78531399999997,-0.27583968639374,-4.36519050598145,5.17408800125122,0.9506898023644275,-0.32666400987274796,0.1218260064417
529,270.79364699999996,0.08915033936501,-4.90024614334106,5.08945846557617,0.9517045896880478,-0.32395216883445305,0.12220495817612653
530,270.80198,0.49257457256317,-5.26937341690063,5.16059017181396,0.9508854029129958,-0.320892358312801,0.11789827930683978
531,270.810313,1.17055797576904,-5.84466981887817,5.33965969085693,0.9525868357444296,-0.32177869154482447,0.11986674094686733
532,270.818646,2.01603245735168,-6.15160417556763,5.4834566116333,0.9547954676102621,-0.3202193367237949,0.11536960699120305
533,270.826979,2.61640453338623,-6.42244958877563,5.56811237335205,0.9553298171685662,-0.3190809853222908,0.11780639084017958
534,270.835312,3.31470012664795,-6.75492334365845,5.73504114151001,0.9573967602788183,-0.31957514432011835,0.11781440705669183
535,270.843645,3.89158368110657,-7.17284440994263,5.88350057601929,0.9579307205822999,-0.31959351228207955,0.11857212806234592
536,270.851978,4.40522623062134,-7.58741044998169,6.0316276550293,0.9577621732439314,-0.3188649488955132,0.11534953603939183
537,270.86031099999997,4.73495817184448,-7.76540422439575,6.15175867080688,0.9561706075862958,-0.31804690555650406,0.11344317270785
538,270.86864399999996,5.0454535484314,-8.10256385803223,6.17148113250732,0.9542621885027204,-0.32140040884212545,0.11807130307567346
539,270.876977,5.46148014068604,-8.30015182495117,6.20826292037964,0.955234157795809,-0.3211786065782816,0.11237261246661734
540,270.88531,5.90089225769043,-8.560546875,6.30073118209839,0.954710026176608,-0.3177064292284908,0.10974204053684183
541,270.893643,6.50638771057129,-8.82414436340332,6.28894901275635,0.9573741834990835,-0.31756072628254794,0.11203025068555508
542,270.901976,7.11165380477905,-8.95723628997803,6.33039331436157,0.9565677448194857,-0.31726460067593365,0.11188796588352755
543,270.910309,7.53323698043823,-9.2636833190918,6.45743894577026,0.9540034313591162,-0.3142504059538551,0.11278090428332856
544,270.918642,8.05743312835693,-9.59500503540039,6.4524712562561,0.956562976447903,-0.3122979037615714,0.11226236820220917
545,270.92697499999997,8.72791004180908,-9.72573757171631,6.46105051040649,0.9554371541860152,-0.3084005385029071,0.11059426531499796
546,270.93530799999996,9.38558197021484,-9.99619960784912,6.74467802047729,0.9528723541571172,-0.3091429934209704,0.10799022353425305
547,270.943641,10.00519180297852,-10.09432983398438,6.79306364059448,0.9529580875318877,-0.3088010817157979,0.10281318304490102
548,270.951974,10.46957588195801,-10.25690078735352,6.81924104690552,0.9524045671735488,-0.3117177924331357,0.10721648225978979
549,270.960307,10.91129493713379,-10.30462074279785,6.9416766166687,0.9529983754060704,-0.3104189707308398,0.10591386532296938
550,270.96864,11.28930950164795,-10.39670372009277,7.09922981262207,0.9541598144842653,-0.3078886684106316,0.10448846281791224
551,270.976973,11.67119407653809,-10.4478063583374,7.30071353912354,0.9536715916224888,-0.30678607979599287,0.10653405773396428
552,270.985306,11.72227001190186,-10.41581535339355,7.46013593673706,0.954826607996104,-0.3059607865859051,0.10579272192351633
553,270.993639,11.99093437194824,-10.54355049133301,7.68866395950317,0.9541035671623387,-0.3069315881145245,0.10996639728546122
554,271.00197199999997,12.53200817108154,-10.69357299804688,7.86079120635986,0.9576606750488285,-0.3015606987233061,0.10630077245284081
555,271.01030499999996,13.22244358062744,-10.89021492004395,8.23606872558594,0.958032218777403,-0.2968911735378969,0.10591010658108468
556,271.018638,14.15836238861084,-10.90304660797119,8.29805374145508,0.9621189078506163,-0.29434700401461833,0.10221302509307856
557,271.026971,15.50219058990479,-11.00417423248291,8.56341934204102,0.9613112040928428,-0.2922858267414326,0.09948789465184081
558,271.035304,16.79342842102051,-11.2177209854126,8.63398551940918,0.9610218904456315,-0.2921039474253755,0.10056058971249285
559,271.043637,17.98567008972168,-11.40496253967285,8.70534801483154,0.9601514193476458,-0.29370687445815713,0.09930590585786428
560,271.05197,19.07391929626465,-11.42102146148682,8.80749702453613,0.9599945496539684,-0.29540176294287857,0.10061561453099184
561,271.060303,19.76127815246582,-11.2992525100708,8.89963150024414,0.9595940064410775,-0.2958263426410908,0.10228283551274488
562,271.06863599999997,20.11980056762695,-11.08552646636963,9.10375308990479,0.9555107233475663,-0.29521983496996834,0.10435295348264693
563,271.07696899999996,20.28337287902832,-11.0785083770752,9.12649726867676,0.9554134096418111,-0.2950109267721367,0.1052807180248959
564,271.085302,20.36685180664062,-11.0146017074585,9.37506008148193,0.953540802001953,-0.29605266999225205,0.10738678124486224
565,271.093635,20.30342864990234,-10.92871475219727,9.31635093688965,0.9519805713575713,-0.29210170921014283,0.10760576141123877
566,271.101968,20.53564453125,-10.7202672958374,9.54613494873047,0.9512408898801225,-0.28964461112508977,0.10768394080959999
567,271.110301,21.07667350769043,-10.51402187347412,9.57333946228027,0.954163804346201,-0.2842403188043714,0.10596421300148468
568,271.118634,22.19624328613281,-10.54949760437012,9.48343276977539,0.9554391004601305,-0.2788152743359,0.10579963119662551
569,271.126967,23.50341606140137,-10.70669174194336,9.51655101776123,0.961725663165657,-0.27499814422763164,0.10799469996471836
570,271.1353,25.10841369628906,-10.89913654327393,9.23269844055176,0.9659548195040959,-0.2683497691641051,0.11097388608115102
571,271.14363299999997,27.06619262695312,-11.21419143676758,9.12353038787842,0.9692549218936847,-0.26574777097118163,0.10983211653573162
572,271.151966,28.73085975646973,-11.55488586425781,8.9005823135376,0.9675798610765101,-0.26633016917170305,0.11482162134987957
573,271.160299,30.49561309814453,-11.90652179718018,8.69987201690674,0.9648798923103172,-0.268268098636549,0.11479391127216529
574,271.168632,31.90416145324707,-12.28602027893066,8.58573341369629,0.9667263225633276,-0.2675183938474071,0.11457870201188672
575,271.176965,33.22202301025391,-12.7463903427124,8.55789375305176,0.9667658319278642,-0.2689000538417275,0.11396551618770713
576,271.185298,34.15448379516602,-13.14889240264893,8.33635520935059,0.9624926897944234,-0.2694918671432806,0.11831546316341428
577,271.193631,34.66402816772461,-13.43010997772217,8.1568489074707,0.9566081300073743,-0.2712011823848806,0.11858002263672447
578,271.201964,35.28123474121094,-13.65984535217285,7.9600305557251,0.9519455384234988,-0.26780167404486227,0.12181751582087347
579,271.21029699999997,35.9825553894043,-13.71381664276123,7.84251308441162,0.9507310633756673,-0.26410560218655305,0.12202721469256327
580,271.21862999999996,36.57460403442383,-13.90687274932861,7.73239755630493,0.9513614615615531,-0.2619574507888479,0.12461839889993467
581,271.226963,37.15031051635742,-14.05418014526367,7.5848593711853,0.9508360648641786,-0.26281500349239384,0.12424775532313775
582,271.235296,37.92931747436523,-14.07794857025146,7.2993106842041,0.9470747928230131,-0.2592243953626979,0.12353943318736836
583,271.243629,39.06067657470703,-13.95384883880615,7.1292839050293,0.9488463888362958,-0.25588145061415096,0.12170024064122448
584,271.251962,40.38565826416016,-13.84440040588379,6.85070466995239,0.9472054851298427,-0.25280395332647854,0.12201382189380917
585,271.260295,41.50510787963867,-13.88100433349609,6.6511697769165,0.9440390917719622,-0.25387858857913875,0.12316229392071122
586,271.268628,42.95022201538086,-13.63485431671143,6.26529169082642,0.9399009237484061,-0.25631449660476324,0.12329658683465408
587,271.276961,44.24735260009766,-13.59540843963623,5.7181453704834,0.9381183312863725,-0.25683225417623673,0.12400293836788263
588,271.28529399999996,44.41408538818359,-14.01117992401123,5.24886655807495,0.9408212194637378,-0.273287053010902,0.13841655789589388
589,271.293627,43.13364410400391,-14.87740230560303,4.50927877426147,0.9427086187868703,-0.2989419625729928,0.16790667358709796
590,271.30196,41.20270156860352,-15.64926147460938,3.66405844688416,0.9382928147607917,-0.28586329246053876,0.17834763137661633
591,271.310293,40.25761032104492,-16.11566925048828,2.62639808654785,0.9341108555696448,-0.25810820715767957,0.17807280530734895
592,271.318626,42.23120498657227,-17.04780197143555,1.53497421741486,0.9380620839644449,-0.24351032412782037,0.19232142944725203
593,271.326959,44.88006210327148,-18.00124740600586,0.68040508031845,0.9383110124237682,-0.23310962988405814,0.20013192478491326
594,271.335292,47.47505569458008,-18.50567436218262,-0.18547309935093,0.9413986789936918,-0.2443816467207306,0.20503827503749283
595,271.343625,50.28672409057617,-18.86013031005859,-1.14121961593628,0.9454842976161407,-0.25825592936301733,0.21381448726264796
596,271.35195799999997,51.99807739257812,-19.46857452392578,-2.31381702423096,0.9566732328765244,-0.26002723343518264,0.22657769066946837
597,271.36029099999996,51.88427352905273,-19.97794151306152,-3.02156591415405,0.9673860121746448,-0.2788197507663653,0.2342318272104071
598,271.368624,50.35398864746094,-20.57943725585938,-3.51036286354065,0.9800630686234457,-0.2996820089768387,0.25070810804561733
599,271.376957,48.09026336669922,-21.38364791870117,-3.56061768531799,0.9898815349656704,-0.29754789508118873,0.26595813887459896
600,271.38529,46.619873046875,-22.44320678710938,-3.71102452278137,0.9897954123360764,-0.2775120735168459,0.2750683317379071
601,271.393623,45.06728744506836,-23.30041122436523,-3.44709467887878,0.9823907151514173,-0.2630584823841949,0.27721147147976627
602,271.401956,44.48757934570312,-23.81356811523438,-3.40846800804138,0.9743327510600183,-0.2636428998441112,0.2833852476003214
603,271.410289,44.42396545410156,-24.40956687927246,-3.37673282623291,0.9682405238248867,-0.26595225139540096,0.28434969940964083
604,271.41862199999997,45.36226272583008,-24.95565986633301,-4.10899353027344,0.9601520032298806,-0.2628686233442653,0.28594360059621426
605,271.42695499999996,45.75035095214844,-25.30281257629395,-5.41906309127808,0.9524589655350664,-0.2626968403251806,0.2880284007714714
606,271.435288,45.31610488891602,-25.19733428955078,-6.19038677215576,0.9426950921817703,-0.26549273607682244,0.28876287596566325
607,271.443621,45.34674835205078,-24.80134010314941,-6.85735702514648,0.9341485159737725,-0.2525627126499102,0.2823800213482918
608,271.451954,47.04297637939453,-24.12051200866699,-7.44008350372314,0.9225477491106305,-0.22581844913716223,0.2741296194037612
609,271.460287,50.49900054931641,-23.13165283203125,-7.90849447250366,0.9068953261083489,-0.20755434522823366,0.2623542474240673
610,271.46862,54.03598785400391,-21.70196914672852,-7.97773122787476,0.8961486816406244,-0.20742516128384386,0.24248945469758978
611,271.476953,55.82139587402344,-19.97605514526367,-7.23330354690552,0.8879930145886479,-0.22434249216196528,0.22446885400888875
612,271.485286,54.94703674316406,-18.1471118927002,-5.97904586791992,0.8858938606417909,-0.24906649881479695,0.2157866711519204
613,271.49361899999997,52.24135971069336,-16.07723999023438,-4.58747053146362,0.8842040081413428,-0.2635245420494857,0.21006652287074487
614,271.50195199999996,48.98186492919922,-13.90183734893799,-3.60572385787964,0.8799820530171295,-0.26239185917134183,0.19950422705436222
615,271.510285,45.79778671264648,-12.00196933746338,-2.61275935173035,0.8769858613306164,-0.2597885472433908,0.19450979573386018
616,271.518618,42.35954666137695,-10.09577751159668,-1.70831847190857,0.8731555938720704,-0.2654998643057684,0.1917063095131694
617,271.526951,38.67189788818359,-8.22383308410645,-0.55726408958435,0.86909751502835,-0.2751572278081153,0.19232026168278263
618,271.535284,34.00862884521484,-6.52637243270874,1.06628322601318,0.8694468712320133,-0.28491596786343365,0.19113556462891224
619,271.543617,28.71825408935547,-4.78713798522949,2.6305456161499,0.8698016770031989,-0.28698463829196225,0.18936949116843058
620,271.55195,23.65674209594727,-3.09598135948181,4.17828607559204,0.8701692308698378,-0.28379094843961733,0.18647459088539592
621,271.56028299999997,19.34040641784668,-1.56079113483429,5.91085815429688,0.8729236953112539,-0.27296830196769895,0.1828315063398714
622,271.56861599999996,16.44932556152344,-0.02529406547546,7.53533983230591,0.8830740013901072,-0.26312582346857855,0.1785928984077612
623,271.576949,14.95089149475098,1.34403038024902,9.3562536239624,0.8967066784294285,-0.25727332854757545,0.17563287092714897
624,271.585282,14.40138912200928,3.06182360649109,10.91019439697266,0.9157582691737581,-0.26279622194718366,0.1818278127787061
625,271.593615,14.39636898040771,4.04804944992065,12.58926010131836,0.940406371136101,-0.2696278630470745,0.18847465515136733
626,271.601948,14.27972221374512,4.5445556640625,14.31453227996826,0.9616939388975806,-0.27142595271674996,0.1969469323450204
627,271.610281,14.32557582855225,4.50744152069092,16.01744842529297,0.9706797891733601,-0.2786697173605163,0.21283731168630202
628,271.618614,13.82181835174561,3.92026019096375,17.35799217224121,0.9574554404433887,-0.2906504455877806,0.23181319236755404
629,271.626947,12.7679967880249,3.17237567901611,18.42124176025391,0.9293360612830337,-0.30228697523778775,0.2386183884679051
630,271.63527999999997,11.98363590240479,2.61823678016663,18.86423683166504,0.8971029398392651,-0.29593207398239485,0.23842171746857346
631,271.64361299999996,12.13478755950928,1.97660005092621,18.75922012329102,0.8698183176468826,-0.28237182266858163,0.23005305504312346
632,271.651946,13.14993000030518,1.03399574756622,18.10308456420898,0.8495710333999326,-0.27988694152053567,0.2267006708651173
633,271.660279,14.07288932800293,0.1183378174901,17.12994956970215,0.84122862134661,-0.2817824665380979,0.22550152272594182
634,271.668612,14.96101379394531,-0.69111084938049,15.89985275268555,0.834773219361597,-0.2828285158896929,0.22455446574152754
635,271.676945,16.13040351867676,-1.16699767112732,14.30085372924805,0.8366030089709224,-0.27412348864029895,0.22081472435776017
636,271.685278,17.67742919921875,-1.47680222988129,12.96481704711914,0.840583431477449,-0.26674898303284894,0.20996434347970103
637,271.693611,19.43138885498047,-1.7378625869751,11.84946918487549,0.8514473389606081,-0.26546149837727445,0.20009544430946835
638,271.70194399999997,20.94747543334961,-1.71296572685242,11.24236297607422,0.8688357411598672,-0.27157727552919997,0.18521417160423467
639,271.71027699999996,22.37931251525879,-1.89523708820343,10.95005416870117,0.8884101984452224,-0.28373321708367755,0.18169578240842243
640,271.71861,22.68737030029297,-2.48321175575256,10.64929008483887,0.911160293890505,-0.30689463323476324,0.1914825366467847
641,271.726943,20.47310829162598,-2.71680092811584,10.96171951293945,0.9331637985852296,-0.33692537521829385,0.202871962469451
642,271.735276,17.59769058227539,-3.21193695068359,11.48769569396973,0.9519106028031326,-0.34945996440186833,0.2133561883653908
643,271.743609,15.36648273468018,-4.20282316207886,11.64393901824951,0.9691666583625632,-0.343420846121652,0.2231187479836602
644,271.751942,14.8219747543335,-5.23991823196411,12.27394866943359,0.983039700255102,-0.34185825561990507,0.23341536521911632
645,271.760275,15.81445503234863,-6.39816999435425,12.42802047729492,0.9898124422345845,-0.33661467688424285,0.23775597007907143
646,271.768608,17.14160537719727,-7.7193775177002,12.5707426071167,0.9899859525719469,-0.3327221773108653,0.2398931980133061
647,271.77694099999997,19.28736305236816,-8.81392669677734,12.44315814971924,0.9878428128300877,-0.33400233911008265,0.2457609468576857
648,271.785274,21.68726539611816,-9.77704906463623,11.948317527771,0.9839921094933336,-0.32896956618951323,0.2462128230503622
649,271.793607,25.14209365844727,-10.69988059997559,11.01931476593018,0.9805308556070133,-0.32379264734229285,0.25189146703603266
650,271.80194,29.14299392700195,-11.44722938537598,9.71358013153076,0.9670005525861469,-0.32010277923272545,0.24426114802457854
651,271.810273,33.54117584228516,-11.60470867156982,8.36317253112793,0.9594227343189469,-0.3213753748913204,0.24265902382986834
652,271.818606,37.62568664550781,-12.10288429260254,7.00915336608887,0.9496321970102735,-0.31833923592859387,0.2328098063566245
653,271.826939,40.00850677490234,-11.73188781738281,5.60871887207031,0.938692871405154,-0.32604297813104083,0.2244469827535204
654,271.835272,40.86994171142578,-11.02211666107178,4.05475234985352,0.932506541816556,-0.33077181602010913,0.21788806331400917
655,271.84360499999997,40.21706008911133,-10.36874675750732,2.53459644317627,0.9276070886728714,-0.3374359559039683,0.20907594233143056
656,271.85193799999996,38.69331359863281,-9.4219913482666,0.74333894252777,0.9266751153128489,-0.34782022845988364,0.20146609569082446
657,271.860271,36.03812789916992,-8.38348388671875,-0.97841364145279,0.9241333786322141,-0.3597918578556602,0.19259445521296323
658,271.868604,32.31093597412109,-7.38626718521118,-2.75998759269714,0.925135807115204,-0.37218536649431533,0.18711242140555917
659,271.876937,27.25403785705566,-6.33518600463867,-4.02755928039551,0.9260262275228692,-0.3811097631649092,0.17979562282562242
660,271.88527,21.19300842285156,-5.28717708587646,-5.09295701980591,0.9295376952813592,-0.38706774614295203,0.17185453249483673
661,271.893603,14.4274377822876,-4.43509244918823,-6.06847381591797,0.9342887450237662,-0.38411709727073157,0.16569209342100205
662,271.901936,7.55733966827393,-3.89140439033508,-6.93149328231812,0.9414399400049326,-0.3801674745520765,0.1618300165448867
663,271.91026899999997,1.02827060222626,-3.27656030654907,-7.78283405303955,0.9426376770953744,-0.374183143888201,0.15781639790048368
664,271.91860199999996,-3.5155029296875,-2.87467288970947,-8.90512180328369,0.9486026180033786,-0.3588780335017612,0.1529747734264449
665,271.926935,-6.58383274078369,-2.57857275009155,-9.75462055206299,0.951249940054757,-0.3374129168841306,0.14873749139357548
666,271.935268,-8.04976081848145,-2.6020348072052,-10.28278541564941,0.9577423212479571,-0.32545659006858363,0.14445501930859592
667,271.943601,-8.84977245330811,-2.33861875534058,-10.49458980560303,0.957786209729253,-0.32123779763980814,0.15040459681530408
668,271.951934,-9.61691665649414,-2.00015187263489,-10.6981954574585,0.9614918183307254,-0.3201505359338255,0.14810198423813775
669,271.960267,-10.07935619354248,-1.693523645401,-10.610032081604,0.9628122680041254,-0.30897936042474283,0.14981290515588264
670,271.9686,-9.87636280059814,-1.42493271827698,-10.43103981018066,0.9605804754763234,-0.29236878667558974,0.14667993905592958
671,271.976933,-8.8647289276123,-1.17255580425262,-10.05466461181641,0.9577604215972275,-0.27995097393892243,0.14942759153794283
672,271.98526599999997,-7.68929052352905,-0.92299622297287,-9.39227962493896,0.9553429545188438,-0.2744990465592367,0.152104156357901
673,271.99359899999996,-6.42794370651245,-0.59856629371643,-8.88270950317383,0.9511217779042765,-0.27282972725070204,0.1552633849941959
674,272.001932,-5.197922706604,-0.20408144593239,-8.56693744659424,0.9470944501915755,-0.27005110468183263,0.15621338571820917
675,272.010265,-3.82845759391785,0.16185635328293,-8.25682640075684,0.9374734333583284,-0.2585725881615459,0.16079232400777346
676,272.018598,-2.22492933273315,0.36820462346077,-7.98367500305176,0.933792250497001,-0.25448176325583977,0.16267074614154997
677,272.026931,-0.73625564575195,0.7520340681076,-7.87540531158447,0.933951261092205,-0.2586333605707908,0.16782679119888572
678,272.035264,-0.00781234307215,1.13596594333649,-7.86357116699219,0.9356971662871693,-0.2676023755754745,0.1693459068025857
679,272.043597,0.0408675186336,1.00141429901123,-7.69354391098022,0.9384853985844825,-0.2686225881381908,0.17816962028036323
680,272.05192999999997,-0.56376934051514,1.35681164264679,-7.45143747329712,0.9421843898539641,-0.27026397841317346,0.18196714167692243
681,272.06026299999996,-1.64453625679016,1.50345301628113,-7.17785120010376,0.9454065439652428,-0.2695468493870326,0.1875904263282306
682,272.068596,-3.09952759742737,1.40765595436096,-6.79935073852539,0.9487031430614233,-0.26488099779401525,0.19308220367042345
683,272.076929,-4.30844259262085,1.4692325592041,-6.45571041107178,0.9545581194819234,-0.26115865123515203,0.2006704223399255
684,272.085262,-5.2861385345459,1.24083065986633,-5.8876633644104,0.9599186449634785,-0.25767433400056833,0.20743778773716529
685,272.093595,-5.6600546836853,1.08694016933441,-5.36003589630127,0.9653400888248367,-0.24733509336199083,0.21067371173780813
686,272.101928,-5.61087560653687,0.7714751958847,-4.83399534225464,0.9638833026496735,-0.24382737218117242,0.21605389458792548
687,272.110261,-4.82823181152344,0.62680596113205,-4.25575399398804,0.9618702713324102,-0.23600609935059794,0.21911813288318874
688,272.118594,-3.51655268669128,0.53139281272888,-3.83959889411926,0.9627117429460795,-0.23247059510678672,0.22342219644663266
689,272.12692699999997,-1.64005386829376,0.18913550674915,-3.39929056167603,0.9592858139349489,-0.2272987365722653,0.22310636481460303
690,272.13525999999996,0.0548016615212,0.20227563381195,-2.63660144805908,0.960654531206403,-0.22882544264501425,0.22239385818948568
691,272.143593,1.60118424892426,0.11923425644636,-1.91492021083832,0.9561435543760959,-0.23119079823396632,0.21771535581471935
692,272.151926,2.73615121841431,0.23480571806431,-1.26285862922668,0.9546659430679009,-0.23302411546512553,0.21274678561152244
693,272.160259,3.61802291870117,0.6630499958992,-0.58011114597321,0.9532133413820846,-0.2373321688905051,0.20601301777119488
694,272.168592,4.04562759399414,0.90551447868347,-0.02520440705121,0.9544135113151704,-0.24556249988322346,0.20171963438695814
695,272.176925,4.38732147216797,1.36388123035431,0.60609686374664,0.9522693984362539,-0.25136178853560504,0.19440395491463774
696,272.185258,4.65153217315674,1.73959076404572,1.05093920230865,0.9520835292582612,-0.256416165098852,0.1929024044348265
697,272.19359099999997,4.72094678878784,2.05853939056396,1.34734725952148,0.9508350917271203,-0.26034204327330307,0.18913602342410918
698,272.20192399999996,4.88200902938843,2.36865091323853,1.60689640045166,0.9489483735999286,-0.2669407153616143,0.18625379825124896
699,272.210257,5.39631795883179,2.50069236755371,1.81946909427643,0.9489697826151948,-0.27052190839027856,0.18456928584040405
700,272.21859,5.71160268783569,2.49597883224487,1.91767358779907,0.9498403510268857,-0.27871192718038773,0.18272628589552242
701,272.226923,5.40018606185913,2.47302913665771,2.09535980224609,0.9508916309901642,-0.28261252811976834,0.1763889619282316
702,272.235256,4.97160768508911,2.29613661766052,2.44212532043457,0.9471953645044437,-0.28713965902523164,0.17231301385529182
703,272.243589,3.98689413070679,2.33471202850342,2.40168046951294,0.9421937319697163,-0.29176913962072243,0.16375248529473163
704,272.251922,3.23493719100952,2.23558497428894,2.33190727233887,0.9385667528424949,-0.29174558970392955,0.1646694480156408
705,272.260255,2.61415004730225,2.29326772689819,2.28454637527466,0.9380479734771101,-0.2900187093384408,0.16374748580309795
706,272.26858799999997,2.51064300537109,2.16168761253357,2.20829272270203,0.9393351418631418,-0.28811914580208875,0.16104433001304183
707,272.276921,2.54263520240784,2.21757793426514,2.25444960594177,0.9388452646683673,-0.2883542070583418,0.15788220629400102
708,272.285254,3.07190251350403,2.19624137878418,2.21751427650452,0.9343787602015907,-0.28711897986275814,0.1600253703642867
709,272.293587,3.78551530838013,2.08179712295532,2.07148742675781,0.9373574354210672,-0.285378280951052,0.15743725153864693
710,272.30192,4.34136915206909,2.04749941825867,2.04223561286926,0.9383679409416356,-0.2846636577528347,0.15832689343666528
711,272.310253,5.01443529129028,1.72998535633087,1.94282710552216,0.9390112818503867,-0.28557402747017957,0.16063629364480814
712,272.318586,5.82658576965332,1.69922292232513,1.88765406608582,0.9366142506502112,-0.28383517751888365,0.16081434123370103
713,272.326919,6.76401567459106,1.74292075634003,2.02156519889832,0.9368142303155398,-0.2838375130478214,0.16124803192761425
714,272.33525199999997,7.79770278930664,1.8494758605957,2.14564037322998,0.9419376996098734,-0.2784042698996408,0.15860693795340408
715,272.34358499999996,8.97885322570801,1.72483706474304,2.35741925239563,0.9433435907169265,-0.2770315870946765,0.15867294097433263
716,272.351918,10.27877616882324,1.61879408359528,2.58356738090515,0.9423811581670019,-0.2783406997213561,0.1613042184284755
717,272.360251,11.29823398590088,1.52518677711487,2.75358128547668,0.9415573976477796,-0.28291215701979083,0.16021722433518368
718,272.368584,11.8724422454834,1.51613247394562,3.05617547035217,0.9406882889416754,-0.28795261772311426,0.16095471625425406
719,272.376917,12.0670862197876,1.75519013404846,3.29490065574646,0.9414342958099989,-0.28866444315229184,0.16150017173922754
720,272.38525,12.17976379394531,1.99347949028015,3.41887378692627,0.9433649997321928,-0.2889595469649959,0.15944770404270714
721,272.393583,11.94311237335205,2.07157707214355,3.85431551933289,0.942672710029446,-0.2883325547588112,0.16000748897085407
722,272.40191599999997,11.59877967834473,2.27508234977722,4.11222457885742,0.9390279224940703,-0.28898042075488056,0.16220533117956018
723,272.41024899999996,10.82361602783203,2.46035027503967,4.30545902252197,0.9337326945090775,-0.29073712777118266,0.16260875731098368
724,272.418582,10.0151538848877,2.66987419128418,4.48194074630737,0.9344275143681745,-0.2905816934546642,0.16113350586015304
725,272.426915,8.78713035583496,2.90442395210266,4.73057842254639,0.9331002527353714,-0.2921677608879245,0.16268607305020713
726,272.435248,7.5398964881897,3.23756265640259,4.940589427948,0.9314351179161846,-0.29120396594611936,0.1603985319332204
727,272.443581,6.31640672683716,3.65330719947815,5.15211153030396,0.9284494361098927,-0.29058359107192655,0.15919957842145613
728,272.451914,5.14547681808472,4.06812953948975,5.60648155212402,0.9247545320160531,-0.29189063578235813,0.1565573896680561
729,272.460247,4.05866527557373,4.50610828399658,5.94963645935059,0.9278029811625581,-0.29114759698206016,0.15814399232669796
730,272.46858,3.05089855194092,4.74347400665283,6.21200227737427,0.9275876259317203,-0.29134047274686836,0.1622051608805755
731,272.47691299999997,2.32363390922546,5.14338970184326,6.59752321243286,0.930323795396454,-0.2931448878074184,0.157640430392051
732,272.48524599999996,1.68151044845581,5.26823329925537,6.88824367523193,0.931190179318798,-0.29204636203999385,0.1616858462898102
733,272.493579,1.34222447872162,5.3617000579834,7.07095098495483,0.9304351222758388,-0.29320972306387755,0.1605249546012102
734,272.501912,1.09678888320923,5.51341342926025,7.18503618240356,0.933381489345005,-0.2937428805292867,0.15521644329538165
735,272.510245,1.07809054851532,5.55608654022217,7.06933784484863,0.9356407243378306,-0.29483739210634796,0.15699213864851938
736,272.518578,1.00854790210724,5.56935548782349,7.16787624359131,0.941439453436404,-0.29798018689058264,0.15969692444314795
737,272.526911,1.02650332450867,5.42660617828369,6.98529672622681,0.9408029244870549,-0.3001312576994602,0.16234427082295305
738,272.535244,0.95291364192963,5.48651838302612,6.77218627929688,0.9401041147660234,-0.30023146648796223,0.1585357043207908
739,272.54357699999997,0.77348583936691,5.45475625991821,6.47275543212891,0.940321027016153,-0.303924205351849,0.16174847982367652
740,272.55190999999996,0.72174507379532,5.43042278289795,6.29911661148071,0.9417726555649111,-0.30616543730910917,0.15648761574102857
741,272.560243,0.46468061208725,5.53239250183105,6.09707069396973,0.9385099216383327,-0.3086395652926694,0.15771166402466427
742,272.568576,-0.10770787298679,5.50158023834229,5.57641220092773,0.9397067829054223,-0.31534771529995714,0.15441254693634693
743,272.576909,-1.12513101100922,5.68344068527222,5.28397417068481,0.9400738502035336,-0.31581066092666327,0.15736992261847652
744,272.585242,-2.02401161193848,5.57619380950928,5.05539226531982,0.9393545072905867,-0.3171665814458112,0.1565420262667602
745,272.593575,-3.05068159103394,5.77147769927979,4.86963844299316,0.9398707564996215,-0.31406619110885914,0.15463020120348264
746,272.601908,-3.67584729194641,5.89993143081665,4.70849847793579,0.9367725800494754,-0.31028604020877754,0.1527729569649214
747,272.610241,-3.94607734680176,5.85771894454956,4.38214731216431,0.9371938510816927,-0.3053322860172816,0.15432056115598058
748,272.61857399999997,-4.37790822982788,5.89388704299927,4.37110757827759,0.9383051736014235,-0.3078805183877755,0.15212931195083979
749,272.62690699999996,-4.56327819824219,5.83074712753296,3.93195128440857,0.9372207096644806,-0.30895612677749285,0.15223978733529897
750,272.63524,-4.75346374511719,5.77785396575928,3.67217183113098,0.9356907435825897,-0.30822729577823565,0.1456828628267561
751,272.643573,-4.44763088226318,5.74465894699097,3.28478264808655,0.9351206798942725,-0.30753906892270405,0.14575165145251223
752,272.651906,-4.3672022819519,5.57734680175781,3.19098377227783,0.936016355242048,-0.3077541322124245,0.1435330692602663
753,272.660239,-4.39770889282227,5.38226842880249,3.1191611289978,0.9399176617057959,-0.3044458311431265,0.1452619567209357
754,272.668572,-4.60420989990234,5.34753513336182,3.01724195480347,0.9374665240852204,-0.3071676225078347,0.1449210181528204
755,272.676905,-4.91783142089844,5.24351644515991,2.78999257087708,0.9399282688997235,-0.3053537923462541,0.139141155748951
756,272.68523799999997,-4.88735055923462,4.97169828414917,2.68320679664612,0.9386758415066468,-0.30516882332003875,0.14329230298801326
757,272.69357099999996,-4.66855335235596,4.80366802215576,2.42158269882202,0.9433594528509641,-0.30550511515870404,0.14100577150072346
758,272.701904,-4.50185537338257,4.69772720336914,2.16075277328491,0.9451566423688612,-0.30422339634019485,0.13707592779276326
759,272.710237,-4.13541793823242,4.58159255981445,1.96454775333405,0.9467258258741723,-0.30287749913273976,0.1392644035572908
760,272.71857,-3.70876169204712,4.52654790878296,1.55869030952454,0.9476825169154571,-0.30362231390816835,0.13693164805976735
761,272.726903,-3.31007671356201,4.38974237442017,1.36407327651978,0.9482421680372591,-0.3045296912290612,0.1370592993132918
762,272.735236,-3.08082890510559,4.27885770797729,1.06879234313965,0.9476347358859316,-0.30366515626712753,0.1330388443810602
763,272.743569,-2.88803052902222,4.20432043075562,0.64871883392334,0.9529435877897307,-0.3054006488955755,0.1325963467967755
764,272.751902,-2.97222447395325,4.08326768875122,0.19544941186905,0.9551845278058735,-0.30718419016623977,0.13795841713340917
765,272.76023499999997,-3.21988868713379,4.0237398147583,-0.10578680038452,0.9560905184064592,-0.30832229828347957,0.13525544380655102
766,272.76856799999996,-3.32011723518372,3.96856713294983,-0.7233971953392,0.9571594121504806,-0.30541565953468774,0.13710728713444284
767,272.776901,-3.11346173286438,3.77287435531616,-1.1511549949646,0.9599018096923826,-0.30408017489374894,0.13601575578962039
768,272.785234,-3.16947960853577,3.66619038581848,-1.54051685333252,0.9586258323825131,-0.3054299403210071,0.13209660442507956
769,272.793567,-3.10349726676941,3.53335547447205,-1.9720653295517,0.956498749402104,-0.30550487187443975,0.13453290170552754
770,272.8019,-3.13920402526855,3.67664170265198,-2.46132326126099,0.9552192687988285,-0.30635561261858263,0.1341943959800561
771,272.810233,-3.30144429206848,3.68993544578552,-2.9597761631012,0.9568129753579898,-0.3044811073614622,0.1340189272043653
772,272.818566,-3.24965238571167,3.52813029289246,-3.56480932235718,0.9594494955880306,-0.3034665389936796,0.1329411779131204
773,272.82689899999997,-3.61862540245056,3.52001047134399,-3.96021676063538,0.9592482508445276,-0.30336920095949793,0.13379128611817653
774,272.83523199999996,-3.6402952671051,3.4119701385498,-4.43774366378784,0.9606185251352733,-0.2985452145946265,0.13418235340896936
775,272.843565,-3.55966186523438,3.2261643409729,-4.90768814086914,0.9622013325593907,-0.299237990865902,0.13063621764280406
776,272.851898,-3.32749390602112,3.08275008201599,-5.44494581222534,0.9620431977875377,-0.29604104100441425,0.1337870651361898
777,272.860231,-3.08182787895203,3.01218295097351,-5.6734766960144,0.965074811662947,-0.2961190865964306,0.13681298615981122
778,272.868564,-2.88616108894348,2.70722007751465,-6.17882013320923,0.9650616743126693,-0.29704458859502036,0.13881176101918163
779,272.876897,-2.72320318222046,2.45771169662476,-6.62184429168701,0.9642274039132254,-0.29752767815881836,0.13699307733652552
780,272.88523,-2.49682474136353,2.23512387275696,-6.98464393615723,0.9607971930990419,-0.2927722249712265,0.13247807415164284
781,272.893563,-1.92921316623688,2.14803552627563,-7.3652720451355,0.95699845528116,-0.2924654921706847,0.13256609439849898
782,272.90189599999997,-1.41075539588928,1.97278296947479,-7.72220706939697,0.9573663984026224,-0.2928518275825347,0.12892358157099487
783,272.910229,-1.10466504096985,1.94299328327179,-8.03421115875244,0.9595367859820928,-0.2947117844406439,0.13055533778910713
784,272.918562,-0.93343406915665,1.81061911582947,-8.45428657531738,0.964664926334303,-0.29525691149186123,0.12653302173225203
785,272.926895,-0.87795346975327,1.77135264873505,-8.65440940856934,0.9636802089457612,-0.2973763066895153,0.1290188395247163
786,272.935228,-0.78794521093369,1.55332446098328,-8.91385746002197,0.9624738109355071,-0.2957988028623622,0.13322614893621323
787,272.943561,-1.08130502700806,1.41961789131165,-8.95701694488525,0.9592320967693714,-0.29570224333782547,0.1337360849185867
788,272.951894,-1.36838948726654,1.42036068439484,-8.94277572631836,0.9574216725874918,-0.29140073425915813,0.13349716760674285
789,272.960227,-1.44249141216278,1.31821119785309,-8.97843074798584,0.9547024357075592,-0.287321270728598,0.1300567631818806
790,272.96855999999997,-1.22121000289917,1.38293838500977,-9.01024436950684,0.953186482799297,-0.28876129461794486,0.13009037290300612
791,272.97689299999996,-1.23493933677673,1.11852240562439,-9.07220458984375,0.9535081045968193,-0.2892601490020755,0.1272371958713143
792,272.985226,-1.23396575450897,1.13875782489777,-9.14208030700684,0.953579727484255,-0.2915138127852459,0.1280038819021112
793,272.993559,-1.10056698322296,0.98461139202118,-9.03060722351074,0.9540869265186541,-0.2901064619726061,0.13015953861937243
794,273.001892,-1.21434545516968,0.86355841159821,-9.02297401428223,0.9525081089564733,-0.28827409355007855,0.12882591510305613
795,273.010225,-1.15666198730469,0.87941360473633,-8.89707946777344,0.9530765183117927,-0.28753441207262953,0.13326625434719794
796,273.018558,-1.20407402515411,0.66479188203812,-8.69856834411621,0.9554228490712693,-0.28753548252339284,0.13548190496405815
797,273.026891,-1.4891859292984,0.60795390605927,-8.48906993865967,0.9536306225523652,-0.2896340282595888,0.13395702352329183
798,273.03522399999997,-1.65578091144562,0.37747699022293,-8.14045906066895,0.951265996816207,-0.290668132353802,0.12887365963994285
799,273.04355699999996,-2.05958938598633,0.37773308157921,-7.91021299362183,0.9523046259977377,-0.29080500408094795,0.12903511524200406
800,273.05189,-2.3310239315033,0.33687844872475,-7.6605019569397,0.9517477969734041,-0.29125941042997444,0.13017401403310305
801,273.060223,-2.24036240577698,0.45271888375282,-7.43072938919067,0.9531963114835775,-0.2868779824704541,0.13032227146382244
802,273.068556,-2.16220045089722,0.2249698638916,-7.33243417739868,0.9541200131786112,-0.2854876372278949,0.13249225762425612
803,273.076889,-1.92562711238861,0.22233156859875,-6.91087484359741,0.9551838466099326,-0.2872328612269184,0.1340116894975
804,273.085222,-1.96343350410461,0.14692324399948,-6.77114820480347,0.9531210879890285,-0.28605339478473263,0.13355728314847345
805,273.093555,-1.84788763523102,0.1380607187748,-6.55027723312378,0.9537798044632888,-0.28974353050699075,0.13676827051201632
806,273.101888,-1.95516002178192,-0.05600552260876,-6.30397033691406,0.9549642095760417,-0.2919022647701959,0.1340868400067704
807,273.11022099999997,-2.13328146934509,-0.19147922098637,-6.11570596694946,0.9554966128602316,-0.29246434873464183,0.13095505383549896
808,273.11855399999996,-2.64677000045776,-0.17495802044868,-5.92073011398315,0.9527583998076765,-0.29523783800553266,0.12920844311616836
809,273.126887,-2.870356798172,-0.27557075023651,-5.8402247428894,0.9524943877239612,-0.2965692111424041,0.12903206202448672
810,273.13522,-3.22680449485779,-0.39403662085533,-5.63405561447144,0.9519523503829019,-0.29637499731414185,0.13035928716464898
811,273.143553,-3.22513961791992,-0.39219236373901,-5.44991493225098,0.9564665385654988,-0.29303468003565,0.1324223133982449
812,273.151886,-3.09117698669434,-0.58785951137543,-5.40793323516846,0.9574535914829795,-0.2919333564991857,0.13703537230588977
813,273.160219,-2.99630188941956,-0.71997773647308,-5.25952482223511,0.9572006731617203,-0.2910583359854561,0.13564351870089184
814,273.168552,-2.88951635360718,-0.64805299043655,-5.13017320632935,0.9542041895340897,-0.28980413261724997,0.1333827875098408
815,273.17688499999997,-2.63690876960754,-0.99259012937546,-4.97331094741821,0.9538857790888572,-0.2910043998640408,0.1345520481771357
816,273.18521799999996,-2.46602344512939,-1.07162272930145,-4.74535703659058,0.952339464304399,-0.2923458206410306,0.13342485135915305
817,273.193551,-2.30058073997498,-1.04744279384613,-4.6058874130249,0.9524188722882948,-0.29353874070303776,0.13394872752987652
818,273.201884,-2.41275858879089,-1.13925719261169,-4.47170782089233,0.9522881799814652,-0.2938443057391112,0.13365945037530408
819,273.210217,-2.60676050186157,-1.31307518482208,-4.47178411483765,0.9521852220807754,-0.29491171544911937,0.1297093289239061
820,273.21855,-2.86400437355042,-1.44772934913635,-4.22125101089478,0.9536078511452182,-0.2955690208746459,0.1309345084793714
821,273.226883,-2.89837861061096,-1.58832597732544,-4.0536322593689,0.9508729467586591,-0.2941596264741857,0.1313535412963551
822,273.235216,-3.00247526168823,-1.50628364086151,-3.74736285209656,0.9518611674406092,-0.2932908340376255,0.1354852622869061
823,273.243549,-3.25838685035706,-1.62162435054779,-3.58632564544678,0.9514657818541234,-0.2936666595692541,0.13359012652416632
824,273.25188199999997,-3.11750864982605,-1.77149343490601,-3.23131251335144,0.9513702197950713,-0.295744088231301,0.12988198776634388
825,273.26021499999996,-3.21545743942261,-1.77633440494537,-2.86126375198364,0.9506323872780317,-0.29374528904350405,0.13178804699255509
826,273.268548,-3.13718056678772,-1.9168541431427,-2.56667470932007,0.951714807627152,-0.29367437168043464,0.13189675856609692
827,273.276881,-2.96366953849792,-1.99774396419525,-2.31001996994019,0.9511455224484816,-0.29386038682898674,0.13004796845572344
828,273.285214,-2.76439070701599,-2.09505224227905,-1.98505187034607,0.9509180030044243,-0.294085059847151,0.1328478905619408
829,273.293547,-2.50445699691772,-2.23651957511902,-1.6716616153717,0.9538429610583244,-0.2938228967238449,0.13022118685196835
830,273.30188,-2.23876118659973,-2.30239963531494,-1.63470065593719,0.9532196667729591,-0.2941319163964714,0.1296750380068408
831,273.310213,-2.04872918128967,-2.43262243270874,-1.44036531448364,0.9546329537216499,-0.29573464880184286,0.13353319800629898
832,273.31854599999997,-1.94949948787689,-2.37340235710144,-1.33962452411652,0.9518527011482081,-0.29563594837577956,0.12963185504991223
833,273.32687899999996,-1.90201044082642,-2.41082453727722,-1.37948024272919,0.9509635458187182,-0.29454318844542243,0.1272218567984449
834,273.335212,-1.77522027492523,-2.57439732551575,-1.34723210334778,0.9498813200970081,-0.2972805986599051,0.13025107432384897
835,273.343545,-1.71494996547699,-2.57944321632385,-1.21675312519073,0.952331192639409,-0.29796113773268057,0.13008168765476735
836,273.351878,-1.71308016777039,-2.55113959312439,-1.08594119548798,0.9533818887204539,-0.2985004746184061,0.13044247821885713
837,273.360211,-1.73608160018921,-2.67273020744324,-0.93973499536514,0.9532148010876713,-0.2960666831658806,0.12895294598170712
838,273.368544,-1.49658858776093,-2.69465589523315,-0.67157959938049,0.953063186334104,-0.2979059122046642,0.129666535221801
839,273.376877,-1.37545871734619,-2.73020839691162,-0.62242585420609,0.9499821370961714,-0.29698182125480815,0.13253297124590202
840,273.38521,-1.25258719921112,-2.69073677062988,-0.43726062774658,0.9499256951468326,-0.29595851898193365,0.13212554308832855
841,273.39354299999997,-0.99006700515747,-2.7497775554657,-0.09223685413599,0.9476983790494959,-0.29499299672185203,0.1317317510137755
842,273.401876,-0.68912529945374,-2.73461413383484,0.05851572006941,0.9469816636066051,-0.29573484342925405,0.12992491527479488
843,273.410209,-0.42161029577255,-2.68361616134644,0.41929218173027,0.9456593649727959,-0.2972958525832816,0.12968536542386427
844,273.418542,-0.3709197640419,-2.60075426101685,0.48965457081795,0.9438902991158621,-0.2955414810959173,0.13140038568146326
845,273.426875,-0.15593945980072,-2.6519570350647,0.67061913013458,0.944343294416155,-0.2973912200149224,0.12965315458725918
846,273.435208,-0.16026827692986,-2.5437114238739,0.97809237241745,0.9435172956817,-0.29972156699822855,0.12902520140823062
847,273.443541,-0.1226921826601,-2.54504323005676,1.26937747001648,0.9431827311613121,-0.299270517972051,0.13100058448557958
848,273.451874,-0.02968689799309,-2.32399249076843,1.55876708030701,0.9412393764573703,-0.29919578104603056,0.13171776216857242
849,273.46020699999997,-0.24785615503788,-2.19029879570007,1.84855377674103,0.9417950377172356,-0.3010555919335816,0.13387277418253365
850,273.46853999999996,-0.35309222340584,-2.09174799919128,2.11065125465393,0.9405521470673233,-0.30086111049262854,0.13281153172862753
851,273.476873,-0.38008964061737,-1.78681063652039,2.36484718322754,0.9436871080982437,-0.30151498561002754,0.13203744985619387
852,273.485206,-0.56077241897583,-1.64754593372345,2.59527254104614,0.9419999803815571,-0.3008538849499765,0.13373984366047142
853,273.493539,-0.70270097255707,-1.53891623020172,2.86153292655945,0.9432491964223427,-0.3017056718164561,0.1328502504193051
854,273.501872,-0.76463603973389,-1.37357616424561,3.01931643486023,0.9432424817766458,-0.3036952018737796,0.1338224508324449
855,273.510205,-0.74468266963959,-1.12055885791779,3.14067673683167,0.9414237859297775,-0.3030791088026398,0.13359407989346223
856,273.518538,-0.65382891893387,-1.00573015213013,3.304607629776,0.9417364548663703,-0.3028501539814224,0.1327327076269653
857,273.52687099999997,-0.63208246231079,-0.91541439294815,3.35942196846008,0.9434204685444734,-0.30203836304800813,0.13608470255014896
858,273.53520399999996,-0.35347646474838,-0.84886848926544,3.48144817352295,0.9439855692337968,-0.30135093903055,0.13366301448977755
859,273.543537,-0.16761955618858,-0.70463484525681,3.5616979598999,0.9426132513552296,-0.30001411632615715,0.13440245268296225
860,273.55187,-0.27589091658592,-0.6090424656868,3.55234885215759,0.939623677000707,-0.3042454622229755,0.13252347099537753
861,273.560203,-0.14825519919395,-0.49347102642059,3.71809840202332,0.9395783288138254,-0.3032615233440786,0.13368066476315918
862,273.568536,-0.15196925401688,-0.43222740292549,3.70303702354431,0.9416509161190112,-0.3043192746687908,0.1339016276962908
863,273.576869,0.11443158984184,-0.22398367524147,3.80380320549011,0.9449424549024928,-0.3007823107193929,0.13796049721386938
864,273.585202,0.18512687087059,-0.15234065055847,3.82821393013,0.9457235920185948,-0.30046419221527754,0.13587274113479897
865,273.593535,0.12874995172024,-0.01000235881656,3.90234160423279,0.9447376095518775,-0.2994083385078275,0.13774318354470405
866,273.60186799999997,0.21345621347427,0.09971621632576,3.99188876152039,0.9442542523753887,-0.2985671101784224,0.14314617429460816
867,273.61020099999996,0.40763771533966,0.14582182466984,4.11194229125977,0.9452438354492183,-0.2959450167052602,0.14118654387337856
868,273.618534,0.58465766906738,0.13398806750774,4.10766506195068,0.9453129281803051,-0.29326774636093467,0.14220788770792447
869,273.626867,0.93324184417725,0.28736609220505,4.06327533721924,0.9415059186974346,-0.29310939263324387,0.1408281618235061
870,273.6352,1.19443035125732,0.45362815260887,4.18079471588135,0.9423786280106519,-0.29284927309775816,0.13778306999985102
871,273.643533,1.41102433204651,0.67408990859985,4.21709012985229,0.9456385398397641,-0.2931993591542143,0.1381070029978847
872,273.651866,1.75627863407135,0.77790439128876,4.34385442733765,0.9459786512413805,-0.28856698347597753,0.13872518831369796
873,273.660199,2.30583167076111,0.85431152582169,4.47469139099121,0.9487013914147203,-0.2843685052832775,0.141231514969651
874,273.66853199999997,2.91944646835327,1.02789926528931,4.46370315551758,0.9510811007752713,-0.286283639012551,0.1430695762439653
875,273.67686499999996,2.74311828613281,1.24643993377686,4.58923864364624,0.9526501869668765,-0.29173904535721734,0.14225237223566833
876,273.685198,1.67592656612396,1.59858441352844,4.70509147644043,0.9502132571473418,-0.29969913618905203,0.1433135417042949
877,273.693531,0.10367361456156,2.21501660346985,4.78229284286499,0.9466774609624122,-0.2978130749293734,0.1437305552618847
878,273.701864,-1.59256517887115,2.67661046981812,4.78203678131104,0.9460427809734735,-0.2942079184006673,0.14752053484624794
879,273.710197,-2.96274733543396,3.26568722724915,4.51795434951782,0.9438662626305407,-0.2896342472154265,0.1508612535437755
880,273.71853,-4.45672273635864,3.47774720191956,4.20272016525269,0.9447146435173194,-0.2890556685778561,0.15615074002012957
881,273.726863,-5.99793243408203,3.70745611190796,3.88881778717041,0.9441135367568663,-0.2862987712937959,0.15232184711767652
882,273.735196,-7.46744775772095,4.05537462234497,3.372230052948,0.9403038024902347,-0.2826656857315377,0.15083491802215612
883,273.74352899999997,-8.12196731567383,4.09476900100708,2.93609619140625,0.9399998917871591,-0.27600830915022856,0.14746758402610305
884,273.75186199999996,-8.2540340423584,4.23633909225464,2.52424478530884,0.9384462784747684,-0.2735324781768173,0.14224833371687956
885,273.760195,-7.95583438873291,4.136878490448,2.68013286590576,0.9367431913103377,-0.2713808478141316,0.140592869447202
886,273.768528,-7.42190456390381,4.01367425918579,2.93755578994751,0.9356173690484488,-0.27071719266930405,0.14071406150350815
887,273.776861,-6.84704399108887,4.15977764129639,3.1926736831665,0.9343372072492326,-0.2699433054242816,0.1429234110579194
888,273.785194,-6.20784044265747,3.94594979286194,3.52230286598206,0.9344554434017255,-0.27093196401790715,0.14594719118001528
889,273.793527,-5.70490598678589,3.75566244125366,3.88697361946106,0.932481921449,-0.26900539592820816,0.14774880847152447
890,273.80186,-4.97251796722412,3.59395933151245,4.25912284851074,0.9346054038222958,-0.268300625742698,0.14941955099300508
891,273.81019299999997,-4.12288045883179,3.53820991516113,4.5844612121582,0.9352935090356937,-0.26521300782962753,0.14287406084488877
892,273.81852599999996,-3.0278332233429,3.17401361465454,5.09678411483765,0.9380506982608713,-0.26657943822899693,0.14856339717397857
893,273.826859,-2.50184464454651,2.9644889831543,5.46309375762939,0.9356931764252336,-0.2805682834313836,0.14882427089068367
894,273.835192,-2.53593730926514,2.68616461753845,5.67569160461426,0.9355550882767651,-0.2936854167860377,0.15711792877742245
895,273.843525,-2.41490983963013,2.54118824005127,6.04113006591797,0.9335897406753224,-0.28727365999805715,0.15850424766540508
896,273.851858,-1.72460639476776,2.3129141330719,6.39394044876099,0.9345341701896827,-0.277260639229599,0.15774371672649795
897,273.860191,-0.34581780433655,2.20374655723572,6.85136032104492,0.9331238026521641,-0.2728632761507622,0.1502725299523806
898,273.868524,0.88672643899918,1.99568200111389,7.13450002670288,0.9302740680928132,-0.2790006569453653,0.15384730027646426
899,273.876857,1.97125899791718,1.76930367946625,7.15097093582153,0.9296701392348927,-0.2857805271537939,0.15440560117059793
900,273.88518999999997,2.50139665603638,1.71338737010956,6.86826467514038,0.9315302907204143,-0.29565648156769386,0.15083394488509794
901,273.89352299999996,2.5311861038208,1.52691578865051,6.90179443359375,0.9307415631352641,-0.2996371230300592,0.15427138124193468
902,273.901856,2.45137190818787,1.45847451686859,6.77966594696045,0.9287224010545377,-0.30395043139554995,0.15431972182526837
903,273.910189,2.2203061580658,1.32791888713837,6.75195121765137,0.9231869055300346,-0.3015177590506418,0.15043944728617753
904,273.918522,1.99315893650055,1.421795129776,6.93122529983521,0.9235771334901142,-0.30195781162806934,0.14879079497590306
905,273.926855,1.79992520809174,1.460728764534,6.69772577285767,0.9237230067350428,-0.30355392670144793,0.14809031875766018
906,273.935188,1.65905964374542,1.51045870780945,6.57671070098877,0.9243620658407407,-0.3044619608898551,0.14867622025158977
907,273.943521,1.26269233226776,1.6579327583313,6.52155113220215,0.9258485326961591,-0.3075702822938255,0.14775778566087958
908,273.95185399999997,0.95222198963165,1.58831298351288,6.27411699295044,0.9261541950459388,-0.3075288023267469,0.14356182546031734
909,273.96018699999996,0.68250411748886,1.72870469093323,6.19317579269409,0.9288779083563357,-0.3082281229447347,0.1460911789718939
910,273.96852,0.33850494027138,1.78211057186127,6.06812763214111,0.9293511449074254,-0.31133279508473877,0.1454591872740765
911,273.976853,0.06248592585325,1.76999497413635,5.73470735549927,0.9310887784373999,-0.3116424472964541,0.14664791068252245
912,273.985186,-0.44945302605629,1.75393462181091,5.41452932357788,0.9329044575593907,-0.31540921756199386,0.1438171036389408
913,273.993519,-0.69504237174988,1.60980355739594,5.19117307662964,0.9319205186804947,-0.3149252521748449,0.14506127153124082
914,274.001852,-1.0929594039917,1.71272158622742,4.94176721572876,0.9308841277141958,-0.31443401258818976,0.14343423502785815
915,274.010185,-1.29075264930725,1.52404713630676,4.38114833831787,0.933357842114507,-0.31552205280381834,0.14346317369110714
916,274.018518,-1.19849014282227,1.43954575061798,3.93156743049622,0.9356533751195796,-0.3127371048440734,0.14084581209688773
917,274.02685099999997,-1.04521441459656,1.38360404968262,3.44871282577515,0.9392994277331295,-0.3113501412527898,0.1421203540295969
918,274.035184,-0.78663873672485,1.27991771697998,2.97269868850708,0.9428587738348508,-0.3110015392303469,0.13688615390232653
919,274.043517,-0.51374471187592,1.15883922576904,2.30462789535522,0.9450163160051621,-0.3113073718791102,0.1386126815056316
920,274.05185,-0.14702571928501,1.17694866657257,1.67349338531494,0.9479584985849806,-0.31265560461550307,0.1376340097310592
921,274.060183,0.15925648808479,1.29105985164642,1.12637317180634,0.9504111932248488,-0.3146580530672653,0.13711329625577345
922,274.068516,0.03658993542194,1.47868406772614,0.67750936746597,0.9507287278467295,-0.31711763265181525,0.13737031391688775
923,274.076849,-0.27199754118919,1.51810443401337,0.25477197766304,0.9538256392186999,-0.32091963047883976,0.13447414855567755
924,274.085182,-0.88492053747177,1.47417593002319,-0.30839538574219,0.9545794311834835,-0.3233632749440714,0.13634977292041428
925,274.09351499999997,-1.79814481735229,1.56912803649902,-0.643070936203,0.955048093990404,-0.32339743205479177,0.13696798256465406
926,274.10184799999996,-2.56657218933105,1.85039818286896,-1.03307342529297,0.9549149688409295,-0.32371440712286526,0.13408815374179794
927,274.110181,-3.31404614448547,2.05538868904114,-1.40350639820099,0.9569375369013572,-0.32049692406946323,0.13170445451931123
928,274.118514,-3.84428715705872,1.99655294418335,-1.93853664398193,0.9551167974666672,-0.32118797302246116,0.1302663647398653
929,274.126847,-4.29412412643433,2.07016825675964,-2.52991819381714,0.9551900746871009,-0.3199428684857428,0.13080126168776532
930,274.13518,-4.61622333526611,2.16163659095764,-3.04888820648193,0.956560446291554,-0.32009136920072545,0.13003250774072142
931,274.143513,-4.82328796386719,2.16957664489746,-3.56504034996033,0.9573305869589049,-0.31643959940696226,0.12807361933649794
932,274.151846,-4.80461549758911,2.17779898643494,-4.13900423049927,0.9594949410886183,-0.31488058518390305,0.1349254408661204
933,274.16017899999997,-5.09874391555786,2.13415217399597,-4.87979316711426,0.961105093664052,-0.3147126217277683,0.13011957917894593
934,274.16851199999996,-5.19313287734985,2.14475703239441,-5.4274525642395,0.9640023173118122,-0.31316275499304896,0.12767403709645203
935,274.176845,-5.39054155349731,1.89506912231445,-5.97313690185547,0.964854201491998,-0.3102885946935541,0.1311725621320765
936,274.185178,-5.68546390533447,1.87265694141388,-6.49141550064087,0.9654943310484592,-0.31152374890385814,0.13610772940577245
937,274.193511,-5.9131236076355,1.73449385166168,-6.88236618041992,0.9607987501183336,-0.3082860245996592,0.12804263708542754
938,274.201844,-6.26244974136353,1.85308730602264,-7.32106065750122,0.9582313226193795,-0.30734081657565404,0.12871949040159897
939,274.210177,-6.23499155044556,1.83400511741638,-7.73775339126587,0.9565793251504703,-0.3020297021281959,0.12889240469251326
940,274.21851,-6.17800045013428,1.77345311641693,-8.09927272796631,0.9576270045066367,-0.3017528932921745,0.12819743886285917
941,274.226843,-6.07460927963257,1.7542552947998,-8.35033130645752,0.95862982224445,-0.2998507995994724,0.12955942932440304
942,274.23517599999997,-6.16688394546509,1.78377544879913,-8.63873481750488,0.9589298403992947,-0.300012364679453,0.1290453575095347
943,274.24350899999996,-6.21652364730835,1.67778384685516,-8.93629455566406,0.9611381803240091,-0.3001078050963734,0.1304719034506347
944,274.251842,-6.31746959686279,1.4839608669281,-9.12653160095215,0.9611485928905255,-0.2998849810386194,0.12927004269191222
945,274.260175,-6.35471343994141,1.74153769016266,-9.27071475982666,0.9625753091306102,-0.299125131295652,0.1265879309907255
946,274.268508,-6.57732677459717,1.60762619972229,-9.51289749145508,0.9627852147939255,-0.2952599282167398,0.12818821838923875
947,274.276841,-6.43916368484497,1.58954274654388,-9.86990928649902,0.9595062294784856,-0.29440583014974797,0.12426203610945713
948,274.285174,-6.33217334747314,1.4271742105484,-10.0499267578125,0.9605102149807673,-0.29254893867336934,0.1289540164324704
949,274.293507,-6.22361898422241,1.44059586524963,-10.32440662384033,0.9614397554981469,-0.29213713139903774,0.13247031338360815
950,274.30183999999997,-6.16598653793335,1.2215428352356,-10.43575096130371,0.9609085199784255,-0.289657505191102,0.13062760537984386
951,274.31017299999996,-6.35010242462158,1.21647143363953,-10.70457363128662,0.959297783520757,-0.28873759873059285,0.13245726118282344
952,274.318506,-6.11447763442993,1.0709056854248,-10.87583065032959,0.9602878531631163,-0.2879315006489653,0.13008325683827346
953,274.326839,-6.0992374420166,0.94047808647156,-10.98049163818359,0.9598220124536632,-0.28719330320552855,0.13144866544373163
954,274.335172,-5.97070407867432,0.86038225889206,-11.22754001617432,0.9597163297692122,-0.28716768537248877,0.13074365197395815
955,274.343505,-5.92839050292969,0.75523591041565,-11.22941112518311,0.9609956157450774,-0.2851190858957714,0.12880793639591734
956,274.351838,-5.79371070861816,0.54120320081711,-11.41088771820068,0.9643439857327204,-0.2840987516909224,0.13214752382161632
957,274.360171,-5.6372332572937,0.34791821241379,-11.27864074707031,0.9649736054089602,-0.28427294322422547,0.13401645786908162
958,274.368504,-5.49253749847412,0.20670689642429,-11.38127708435059,0.9626442072342856,-0.28321803832540715,0.1310504820882061
959,274.37683699999997,-5.37350845336914,-0.11156281083822,-11.48222255706787,0.9627864798721,-0.2804359367915561,0.13453132035780918
960,274.38516999999996,-5.05117893218994,-0.37057396769524,-11.54185199737549,0.9589501789637969,-0.27910349320392247,0.1323454477349102
961,274.393503,-4.63271951675415,-0.48898860812187,-11.46001529693604,0.9583301933444276,-0.2747771691302867,0.1290112612198806
962,274.401836,-3.98457622528076,-0.75322502851486,-11.56257343292236,0.9601281613719704,-0.27594809629479183,0.1267059481873806
963,274.410169,-3.42137002944946,-0.83437091112137,-11.79251194000244,0.961114338466099,-0.27370949180758775,0.1269124721994204
964,274.418502,-2.98756814002991,-0.93992733955383,-11.67199897766113,0.9616157959918581,-0.27490849397620404,0.12841710022517652
965,274.426835,-2.58844685554504,-1.01318395137787,-11.66992378234863,0.9595651042704683,-0.2760571119736653,0.13176336580393264
966,274.435168,-2.34219145774841,-1.09812068939209,-11.56293201446533,0.9554161344255725,-0.27371737421775305,0.131933385012101
967,274.44350099999997,-2.40645742416382,-1.1571102142334,-11.31147766113281,0.954209444474201,-0.2737975850397224,0.12986843683281735
968,274.45183399999996,-2.50581550598145,-1.16781711578369,-10.99875354766846,0.9533364432198662,-0.27431706992947347,0.12920568183976733
969,274.460167,-2.42983055114746,-1.04408764839172,-10.52620983123779,0.9515488877588386,-0.2756603883237255,0.13067543506622345
970,274.4685,-2.61283159255981,-1.05539619922638,-10.23898506164551,0.9516335506828457,-0.27800628117152654,0.12781783026091936
971,274.476833,-3.21837759017944,-1.09586668014526,-9.78620052337646,0.9505836331114478,-0.27704068592616526,0.12703087865089896
972,274.485166,-3.56032776832581,-1.13684952259064,-9.42340087890625,0.9495164910141306,-0.27757126457837145,0.12879510315097142
973,274.493499,-3.58138275146484,-1.09117937088013,-8.86480617523193,0.9480706039740112,-0.27055463012383874,0.12894332408905
974,274.501832,-3.3840765953064,-1.15188503265381,-8.4853048324585,0.9463674194958744,-0.2681164838829816,0.12970683526019694
975,274.510165,-2.97844862937927,-1.16715097427368,-7.89978837966919,0.9464384585010766,-0.2679748924411071,0.127608289524001
976,274.51849799999997,-2.82432842254639,-1.27409064769745,-7.21017742156982,0.9471823244678734,-0.2686996362647235,0.1263623456565704
977,274.526831,-2.74118447303772,-1.35777235031128,-6.69013166427612,0.9443813440751061,-0.27352904786868976,0.12919623024609592
978,274.535164,-2.82847738265991,-1.21725249290466,-5.94516658782959,0.9437942504882816,-0.2752144725955265,0.12442082774882447
979,274.543497,-2.95017099380493,-1.27675437927246,-5.3126745223999,0.9420995323025448,-0.27245565336577754,0.1261633391283
980,274.55183,-2.87870693206787,-1.27549922466278,-4.6020073890686,0.9432654478112039,-0.2712882781515316,0.12686583460593673
981,274.560163,-2.87081789970398,-1.11369407176971,-3.83475852012634,0.942873273577009,-0.26956246823680613,0.1253910332309959
982,274.568496,-2.68547296524048,-1.04525291919708,-3.02437520027161,0.9451055526733397,-0.27057944511880716,0.1245240167695653
983,274.576829,-2.5137300491333,-0.99955713748932,-2.41580677032471,0.9464284351893837,-0.27284108862585,0.1250509096651663
984,274.58516199999997,-2.60166358947754,-1.05101609230042,-1.80524015426636,0.9452670934248938,-0.2728687500467102,0.12562568090399895
985,274.59349499999996,-2.40230798721313,-0.94405114650726,-1.08261132240295,0.9436120792311061,-0.27301447732107953,0.12407762663704998
986,274.601828,-2.44265079498291,-0.82614880800247,-0.45572847127914,0.945192940381108,-0.27400318457155814,0.12378926179846939
987,274.610161,-2.39769744873047,-0.73488527536392,0.06935054808855,0.9478404570598989,-0.2785716494735408,0.1235220991835306
988,274.618494,-2.46014499664307,-0.69638705253601,0.54049879312515,0.9482673722870498,-0.28035051968632957,0.12389384970373062
989,274.626827,-2.62812280654907,-0.53844964504242,1.02929520606995,0.9495233029735326,-0.2815814407504336,0.12391505192737141
990,274.63516,-2.71925830841064,-0.33648139238358,1.35938584804535,0.9523619437704286,-0.283950445603351,0.12098537415874286
991,274.643493,-2.87002420425415,-0.42784741520882,1.81191265583038,0.9523213639551276,-0.28185404076868165,0.12566947207158877
992,274.65182599999997,-2.85214519500732,-0.34657341241837,2.18526601791382,0.9488446371895928,-0.28265478659649285,0.12347254217887449
993,274.66015899999996,-2.73754692077637,-0.38174173235893,2.53274846076965,0.9482320474118602,-0.2807344222555357,0.12433342787684183
994,274.668492,-2.56921005249023,-0.38768422603607,2.88161396980286,0.9454467345257194,-0.2803768673721622,0.12244840057528775
995,274.676825,-2.27403163909912,-0.24555085599422,3.21334409713745,0.9458835757508571,-0.28116866033904386,0.12215116802526939
996,274.685158,-2.15413165092468,-0.09616864472628,3.50665259361267,0.9454575363470581,-0.28446922496873467,0.11945758547101733
997,274.693491,-1.90047371387482,-0.09143000841141,3.70675086975098,0.9450403524904836,-0.28716342789786226,0.11898708586790101
998,274.701824,-1.88351726531982,0.03667958825827,4.08486890792847,0.9457733193222356,-0.28841415230108775,0.1217030627386908
999,274.710157,-1.88735949993134,0.13447473943233,4.35842847824097,0.9456651064814356,-0.28723865139241117,0.12105186374819998
1000,274.71849,-2.20666599273682,0.26592698693275,4.64384794235229,0.9455840441645408,-0.28983218329293364,0.11702867186799386
1001,274.72682299999997,-2.28860640525818,0.38388055562973,4.87778282165527,0.9446246283394949,-0.28998764193787857,0.122998952865601
1002,274.73515599999996,-2.56360077857971,0.66374170780182,5.33089923858643,0.9443901996223295,-0.2912373202187673,0.12140452861785918
1003,274.743489,-2.63870191574097,0.77818614244461,5.62164640426636,0.9461865133168743,-0.2947124413081581,0.11841696135851834
1004,274.751822,-3.03900074958801,0.91299384832382,5.91259765625,0.9474120821271621,-0.2945085934230255,0.12059264037073876
1005,274.760155,-3.25126647949219,1.17180001735687,6.44102001190186,0.9472543366101326,-0.29717034223128364,0.12176581791468978
1006,274.768488,-3.35236597061157,1.39564311504364,6.77075290679932,0.9472741886061061,-0.29948317274755404,0.12453968427619182
1007,274.776821,-3.48799347877502,1.57158732414246,7.12615013122559,0.9460319791521346,-0.29770106685404896,0.12263108272941733
1008,274.785154,-3.70461225509644,1.86089980602264,7.48582410812378,0.9435049368410694,-0.29690362969223366,0.12156897661637245
1009,274.79348699999997,-3.8332724571228,1.95759344100952,7.90707540512085,0.9424688378158876,-0.2973087709777214,0.124135966203651
1010,274.80181999999996,-3.91549515724182,2.06363677978516,8.2040491104126,0.9425625509145306,-0.2977700622714296,0.1251358645302908
1011,274.810153,-3.74818277359009,2.17347049713135,8.50142955780029,0.9442844196241723,-0.2997522208155418,0.12462482160451428
1012,274.818486,-3.790855884552,2.1477792263031,8.69453430175781,0.9454765125196805,-0.3027890896310612,0.12751775128500814
1013,274.826819,-3.54493403434753,2.10241675376892,8.64591979980469,0.9492625022421081,-0.3021016899420285,0.12529488728970917
1014,274.835152,-3.45151805877686,2.24503636360168,8.81886577606201,0.9483990377309367,-0.3052767198912949,0.1246403188121561
1015,274.843485,-3.37810802459717,2.17119073867798,8.83899879455566,0.9477395427470305,-0.30348045485360303,0.12826186053606936
1016,274.851818,-3.13815402984619,2.15436244010925,8.66420841217041,0.9475719685457193,-0.30540510099761325,0.12924932703679898
1017,274.860151,-3.03641414642334,2.09227323532104,8.39684677124023,0.9488767507124918,-0.30404127373987344,0.13132021135213467
1018,274.86848399999997,-2.80539917945862,1.84752929210663,7.98860645294189,0.9506941814811856,-0.30546268638299384,0.13286824129065714
1019,274.87681699999996,-2.2682945728302,1.7879763841629,7.58308267593384,0.9528083217387296,-0.302256297092049,0.13354424311190202
1020,274.88515,-1.8993467092514,1.7614654302597,6.89690208435059,0.9548631006357622,-0.3025295053209582,0.13133173086205305
1021,274.893483,-1.36913204193115,1.70849502086639,6.23761701583862,0.9544509770918866,-0.3036288825833071,0.13432615873765
1022,274.901816,-0.82467591762543,1.42673850059509,5.30280017852783,0.9561476415517376,-0.30340632613824386,0.13400750500815303
1023,274.910149,-0.319973051548,1.54031217098236,4.45376491546631,0.9562917631499622,-0.30586437303192754,0.13070622268988163
1024,274.918482,0.11494388431311,1.44382321834564,3.39010787010193,0.9565217154366632,-0.3070710386548724,0.13072109952264896
1025,274.926815,0.49080714583397,1.49930369853973,2.5309042930603,0.9586172687764072,-0.3052192561480459,0.13834885188511428
1026,274.93514799999997,0.71531587839127,1.48501074314117,1.57948899269104,0.9567557548990051,-0.30428414442101326,0.140386564391
1027,274.94348099999996,0.96362030506134,1.48501074314117,0.67702257633209,0.9536274112000754,-0.2987819788407306,0.1361219858636663
1028,274.951814,1.5259553194046,1.52512276172638,0.06061608344316,0.9515357504085622,-0.29541414611193567,0.13760882980969488
1029,274.960147,2.3394889831543,1.53951799869537,-0.63551479578018,0.9581997929787153,-0.2939849727007806,0.13715922832488978
1030,274.96848,3.60785460472107,1.64166748523712,-1.12682139873505,0.9661968386903103,-0.28809496334620915,0.13795542473695713
1031,274.976813,5.51278591156006,1.50388860702515,-1.27210557460785,0.9688532109163245,-0.279748196504554,0.13364884318137651
1032,274.985146,7.51328325271606,1.33778023719788,-1.50255680084229,0.963578516123246,-0.2772412008168745,0.1290356869600255
1033,274.993479,9.49431419372559,1.28135216236115,-1.6717643737793,0.9607642037527897,-0.2813342639378143,0.13716403318911222
1034,275.001812,11.03851890563965,1.2459020614624,-1.65923893451691,0.9637066782737264,-0.27943934713091123,0.14778762447590713
1035,275.01014499999997,12.32955455780029,0.81496822834015,-1.62553095817566,0.9700357670686682,-0.27142013822283056,0.15517176414022651
1036,275.01847799999996,13.74548530578613,0.27509695291519,-1.46541631221771,0.9673063122496316,-0.2589103153773714,0.15968739986419692
1037,275.026811,15.13042163848877,0.00876006949693,-1.71989369392395,0.9636622059101959,-0.25369885016460814,0.16776218706247756
1038,275.035144,16.36602783203125,-0.54864430427551,-1.95608258247375,0.9585564477103102,-0.25322018837442245,0.1726110857360214
1039,275.043477,17.33447456359863,-0.94738107919693,-2.30323219299316,0.9515738000675121,-0.25258884137990506,0.1803893215802255
1040,275.05181,18.64933395385742,-1.71652567386627,-2.8861870765686,0.949387647667709,-0.2457698024049102,0.19017506618888977
1041,275.060143,20.01621055603027,-2.40908360481262,-3.21123194694519,0.9452607680340204,-0.24181246757507346,0.194249469406751
1042,275.068476,21.3553638458252,-2.98221516609192,-3.51312160491943,0.9381150226203764,-0.24292211143337958,0.1948170637597847
1043,275.07680899999997,22.96208572387695,-3.72345328330994,-3.69974708557129,0.9394862700481805,-0.2394666233841255,0.20177113766572957
1044,275.08514199999996,24.81873321533203,-4.62535715103149,-3.52792716026306,0.9383391360847315,-0.22957222802298366,0.21011707734088467
1045,275.093475,26.2594108581543,-5.27447414398193,-2.98739004135132,0.9374004480790121,-0.22643420161033162,0.21251992303497957
1046,275.101808,28.49405288696289,-5.84111261367798,-3.10239839553833,0.9380375609105949,-0.22620115961347348,0.2235335963112969
1047,275.110141,31.3839111328125,-6.82098722457886,-3.12996006011963,0.9393461383118917,-0.2253660620475306,0.23512579956833163
1048,275.118474,34.33182907104492,-7.47881412506104,-3.07033014297485,0.9380637382974427,-0.23051281364596632,0.2355323275741265
1049,275.126807,37.38072967529297,-8.06399917602539,-3.34788703918457,0.9384777108017275,-0.23535618976670916,0.23431758491360405
1050,275.13514,38.88162612915039,-8.20723438262939,-3.15493559837341,0.9347569212621571,-0.24201383396070816,0.23210693378837752
1051,275.143473,39.26351165771484,-8.13536071777344,-3.07168865203857,0.9364869643230825,-0.2556199200299316,0.2261476127468806
1052,275.15180599999997,41.03771591186523,-8.06899642944336,-2.97404766082764,0.9391210517104795,-0.26025616392797346,0.21961144038609082
1053,275.160139,42.32220458984375,-8.26878833770752,-3.08649516105652,0.9410899026053295,-0.25070484803647447,0.21951011248997243
1054,275.168472,44.24737548828125,-8.25411128997803,-3.48743534088135,0.9430502872077785,-0.2560601915631979,0.2167254564713459
1055,275.176805,44.72774887084961,-8.12645053863525,-3.34163904190063,0.9473201206752233,-0.2674423918432122,0.21614848350992039
1056,275.185138,42.74092102050781,-7.84871482849121,-2.8280725479126,0.9445967966196489,-0.2909216588857224,0.21880412588314183
1057,275.193471,39.67424011230469,-7.44866800308228,-2.44598340988159,0.9405572073800225,-0.3042272159031459,0.2141641597358551
1058,275.201804,36.34321975708008,-7.00597381591797,-2.08651208877563,0.9371005272378724,-0.303062005918853,0.20613996350035405
1059,275.210137,33.32587814331055,-6.55137252807617,-1.79945302009583,0.9310278600575969,-0.3013293840447255,0.20273432439687344
1060,275.21846999999997,30.20385551452637,-6.21415948867798,-1.5381361246109,0.9274373735700336,-0.30722323729067447,0.19766452361126324
1061,275.22680299999996,26.57912826538086,-5.67369794845581,-0.96875655651093,0.9188171308867785,-0.3084459596750683,0.19488279916802242
1062,275.235136,23.08036994934082,-5.00211620330811,-0.67163115739822,0.9102853463620549,-0.3108604100285745,0.19136668468008264
1063,275.243469,19.68153762817383,-4.47535943984985,-0.34796950221062,0.9029708589826316,-0.312768415528901,0.18222643404590813
1064,275.251802,16.98686599731445,-3.88343930244446,-0.00414950726554,0.8909398682263429,-0.308308285109851,0.17742755461712245
1065,275.260135,15.29330253601074,-3.19126558303833,0.68099308013916,0.8808206052196265,-0.2988686123672796,0.16909858401940814
1066,275.268468,13.60778427124023,-2.45923614501953,1.44726872444153,0.8707504856343173,-0.30588176785683163,0.1638449941362653
1067,275.276801,12.0928783416748,-1.65031254291534,2.43113660812378,0.8629511813728172,-0.3149400681865459,0.16031826029018467
1068,275.28513399999997,10.03646659851074,-0.74210858345032,3.49845719337463,0.851355961390904,-0.3211118493761337,0.1570126596762214
1069,275.29346699999996,8.17537307739258,0.24339929223061,4.286696434021,0.8476395509680917,-0.3283283175254357,0.15771830568508263
1070,275.3018,5.64703035354614,1.05451273918152,5.5057168006897,0.8451267164580674,-0.3364193682767908,0.15943658595182447
1071,275.310133,2.37995958328247,1.95695340633392,6.88791179656982,0.8472628496131122,-0.3468451207997847,0.15975294064502346
1072,275.318466,-1.04128277301788,2.80425953865051,8.4592809677124,0.8445138347392183,-0.3500131441622367,0.1567767590892561
1073,275.326799,-4.85385894775391,3.62650179862976,9.90333366394043,0.8379446730321765,-0.3532474138298816,0.15392037070527345
1074,275.335132,-8.00283527374268,4.45623683929443,11.05265808105469,0.8346932274954663,-0.36322150911603673,0.14249673911503366
1075,275.343465,-11.27966690063477,5.42737627029419,11.95336055755615,0.8355653529264488,-0.3687062068861357,0.14041494350044081
1076,275.351798,-14.5227632522583,6.11189079284668,12.91266441345215,0.8340838490700234,-0.3732229982103622,0.1340934330103347
1077,275.36013099999997,-17.07343101501465,7.15487861633301,13.80201721191406,0.8338831882087551,-0.37518681312093977,0.12904264488998776
1078,275.36846399999996,-19.4684944152832,8.12268829345703,14.30167865753174,0.8357097664657908,-0.3781603550424377,0.12328332784224488
1079,275.376797,-21.74726867675781,9.29884433746338,14.76591110229492,0.8406300447425061,-0.39425380375920505,0.11548801344268161
1080,275.38513,-24.08403015136719,10.7263011932373,15.0869607925415,0.8539131709507529,-0.408588136945452,0.10722637176513673
1081,275.393463,-26.20800018310547,12.02627849578857,15.53055477142334,0.8772490949046856,-0.4129548462069765,0.10993164412829387
1082,275.401796,-28.2134952545166,13.44420909881592,16.162841796875,0.8988530295235764,-0.4172981515222663,0.1112354045011561
1083,275.410129,-29.99325561523438,14.77761268615723,17.11894989013672,0.9166483003265999,-0.42364427021571527,0.11601467521823164
1084,275.418462,-32.2719841003418,15.70961666107178,18.19060134887695,0.9336177670225806,-0.43658811218884486,0.12603939795980612
1085,275.42679499999997,-34.99914169311523,16.41918563842773,19.59001541137695,0.9438982788397335,-0.45340927279725407,0.1347060714449204
1086,275.43512799999996,-38.0264778137207,16.8647518157959,20.61049461364746,0.9484470133878744,-0.4626534909618143,0.14202807630811426
1087,275.443461,-40.36716842651367,17.09169578552246,21.53345680236816,0.9511282979225621,-0.4666589717475734,0.14233440768962038
1088,275.451794,-42.04122924804688,16.9972095489502,21.87661743164062,0.9494084728007417,-0.46943703476263565,0.14111622255675613
1089,275.460127,-43.39606475830078,17.00371551513672,21.91193771362305,0.9424666969143612,-0.47494649887084994,0.1422180934828153
1090,275.46846,-44.31001663208008,16.94393348693848,21.80543518066406,0.935590413151955,-0.47541341003106524,0.1380705833435061
1091,275.476793,-45.02322387695312,16.9825611114502,21.43177795410156,0.9309740455783143,-0.47370127269199896,0.1392534192727541
1092,275.485126,-45.54488372802734,16.95064544677734,20.81390762329102,0.9269488587671397,-0.46765390707522037,0.13583200318472755
1093,275.493459,-45.35874557495117,16.8971118927002,19.51623916625977,0.9295896608002336,-0.465838665864905,0.1356319140414806
1094,275.50179199999997,-45.01033401489258,16.87341499328613,17.67195510864258,0.9318249566214428,-0.4688997657931581,0.13850575807143264
1095,275.51012499999996,-44.62619400024414,16.58146286010742,15.36861419677734,0.9387919367576132,-0.4735878535679408,0.14423482272089694
1096,275.518458,-44.1588249206543,16.03549194335938,12.76940155029297,0.9496262608742223,-0.47890497713672847,0.15303886666589897
1097,275.526791,-43.74443435668945,15.37958526611328,10.43609142303467,0.9629793556369081,-0.48244267093892035,0.16047363378563673
1098,275.535124,-43.25865173339844,14.41884231567383,8.13969326019287,0.9753826686314173,-0.48314863321732543,0.16310539780830816
1099,275.543457,-42.66680526733398,13.57152080535889,5.74401521682739,0.9810469101886355,-0.48548231319505303,0.1669591178699418
1100,275.55179,-41.61956405639648,12.59151744842529,3.65109729766846,0.9829993150672132,-0.48396134863094387,0.16845622841192756
1101,275.560123,-39.79287338256836,11.56351184844971,1.3182258605957,0.9798378847083264,-0.4802746675452408,0.16571086280199898
1102,275.56845599999997,-37.85553359985352,10.64021778106689,-0.91650426387787,0.9729452522433529,-0.48001897578336733,0.16617913635409592
1103,275.57678899999996,-35.41374969482422,9.7535285949707,-3.263667345047,0.9682197960055602,-0.47631414569154074,0.1671592313416153
1104,275.585122,-32.97920608520508,8.9125337600708,-5.97142696380615,0.9574805473794744,-0.47463597083578263,0.17297319003513875
1105,275.593455,-30.76792526245117,8.1654167175293,-8.73512840270996,0.9459290212514448,-0.47690333152303876,0.1764326192894765
1106,275.601788,-28.79088973999023,7.46035766601562,-11.66276168823242,0.9362457236465141,-0.4760131057427857,0.18393263524892345
1107,275.610121,-27.32070541381836,6.59533882141113,-14.72804260253906,0.9203205303269989,-0.47174229913828364,0.1901491320863061
1108,275.618454,-26.23222541809082,5.94117498397827,-17.52002334594727,0.9065123966761999,-0.4671738585647275,0.18941857376877141
1109,275.626787,-25.68710517883301,5.17285060882568,-20.28738784790039,0.890607833862305,-0.46112308696824694,0.1911749645155306
1110,275.63512,-25.11158561706543,4.55454921722412,-22.9942569732666,0.8794457571847101,-0.46004772186279286,0.18612676737259795
1111,275.64345299999997,-24.87698364257812,4.00799226760864,-25.7570629119873,0.8676296350907305,-0.46519882824956116,0.1880803035230051
1112,275.651786,-25.44951820373535,3.54547595977783,-28.02026557922363,0.8657924496397683,-0.46771696635655,0.18906922972932141
1113,275.660119,-26.28559494018555,2.89359283447266,-29.81731414794922,0.862175785765356,-0.4702428409031459,0.1925681683481959
1114,275.668452,-27.66349411010742,2.25459432601929,-31.48619651794434,0.8623174745209367,-0.4674118878890061,0.19139613424028673
1115,275.676785,-29.08724212646484,1.65821707248688,-32.54112243652344,0.8618197149159958,-0.46385103342484485,0.18955932587993365
1116,275.685118,-30.55644989013672,1.02569818496704,-33.25798416137695,0.8655913022099703,-0.45846588757573364,0.18881707775349488
1117,275.693451,-31.93972969055176,0.28990244865417,-33.70188903808594,0.867172747242207,-0.4534417755749765,0.18589210753538163
1118,275.701784,-33.17943954467773,-0.46345213055611,-33.70256042480469,0.8743021439532845,-0.4462159409814948,0.1831748412579908
1119,275.71011699999997,-34.03987884521484,-1.12404465675354,-33.80704116821289,0.8795135848376213,-0.44066750273412547,0.18072361848792243
1120,275.71844999999996,-34.66545486450195,-1.98506879806519,-33.55894470214844,0.881162662895358,-0.4343020186132316,0.1752420104279806
1121,275.726783,-34.81273651123047,-2.59914565086365,-33.11056518554688,0.8855625074736927,-0.4280359890996194,0.17251136351604898
1122,275.735116,-34.78094863891602,-3.28256058692932,-32.55926895141602,0.8910340678935154,-0.4209349593337704,0.16884786742074182
1123,275.743449,-34.21612167358398,-3.98277807235718,-31.78466415405273,0.8955720979340224,-0.4184734091466786,0.1675825946185051
1124,275.751782,-33.49392700195312,-4.58240747451782,-31.06515121459961,0.8971309661865233,-0.41216251801471326,0.16874181980989386
1125,275.760115,-32.5983772277832,-5.11987209320068,-30.25602340698242,0.8993248063690806,-0.4094011929570408,0.16523953603238467
1126,275.768448,-31.57105445861816,-5.64027643203735,-29.14678764343262,0.9044517789568225,-0.4030309161361388,0.1662574617230163
1127,275.77678099999997,-30.38057518005371,-6.09188032150269,-28.07585525512695,0.9075448950942683,-0.39860951657197957,0.16304063553712755
1128,275.78511399999996,-29.26394653320312,-6.61958599090576,-27.23455429077148,0.9102297802360694,-0.39680721808452957,0.1605402815098663
1129,275.793447,-27.93169212341309,-7.16258144378662,-26.26655960083008,0.91453065677565,-0.39102194260577755,0.1600265259645418
