,timestamp,GyrY,GyrX,GyrZ,AccY,AccX,AccZ
191,268.002092,0.65213841199875,1.70717597007751,-0.55497080087662,0.5412130453148662,0.1303532658791051,0.8543515691951825
192,268.010425,0.72011858224869,1.82679426670074,-0.65461015701294,0.5409579374352275,0.13102510753942959,0.8595557115515887
193,268.018758,0.66474056243896,1.84641492366791,-0.66111618280411,0.540660838691556,0.13245931693485816,0.8586096277042305
194,268.027091,0.57206833362579,1.8957222700119,-0.57991909980774,0.5408921533701367,0.13144060057036736,0.8601034904012878
195,268.035424,0.62101715803146,1.81949436664581,-0.67092645168304,0.543157957038101,0.13091559312781528,0.8585455952858437
196,268.04375699999997,0.61517709493637,1.71603846549988,-0.70694005489349,0.5425241528725132,0.12956937965081633,0.8593701343147121
197,268.05208999999996,0.57801079750061,1.85671186447144,-0.73060762882233,0.5415611364403551,0.13064964693419795,0.8569399191408744
198,268.060423,0.6831060051918,1.73476243019104,-0.64164936542511,0.5399791075258836,0.12963281602275611,0.8620079196229274
199,268.068756,0.59839969873428,1.75187265872955,-0.6600147485733,0.5422969253695744,0.12971324580056326,0.8605587239168131
200,268.077089,0.71199893951416,1.75650906562805,-0.61910891532898,0.5422421864100867,0.13123362648243775,0.8593072696607937
201,268.085422,0.65972018241882,1.82487332820892,-0.69843602180481,0.5429152079990928,0.1307628714308449,0.8581424246028979
202,268.093755,0.73738265037537,1.71731925010681,-0.60591757297516,0.5414573513731663,0.13152189400731326,0.8592660086495529
203,268.102088,0.61510020494461,1.73998773097992,-0.64805293083191,0.5433533629592581,0.12914599204549998,0.8572965738724694
204,268.110421,0.6067755818367,1.80702030658722,-0.71052598953247,0.5419557921740469,0.1311654339031296,0.8627592787450673
205,268.11875399999997,0.70385348796844,1.71957314014435,-0.58388930559158,0.540822233472552,0.13058073666630918,0.8599717276436938
206,268.12708699999996,0.56522929668427,1.79943835735321,-0.74000805616379,0.5426615111681877,0.12982297916801633,0.861549377441406
207,268.13542,0.6990892291069,1.64267933368683,-0.67625421285629,0.5426670580494163,0.12860660650292244,0.8589837989028623
208,268.143753,0.73330992460251,1.69434320926666,-0.55258864164352,0.5413106023048867,0.13264282625548673,0.8559019711552835
209,268.152086,0.66118025779724,1.85527765750885,-0.73017221689224,0.5419119523496041,0.13050312898596939,0.8597594864514407
210,268.160419,0.69053411483765,1.76321983337402,-0.70337963104248,0.5415438632575836,0.1315364302421102,0.8581055427084163
211,268.168752,0.67191255092621,1.75963377952576,-0.62722849845886,0.5414839180148378,0.12998139371677347,0.8577097678671081
212,268.177085,0.65651845932007,1.74288213253021,-0.67292433977127,0.5414984664138479,0.12990812866055204,0.8584097453526092
213,268.18541799999997,0.66353672742844,1.74021828174591,-0.6010507941246,0.5435297440509408,0.13110541567510509,0.8594148013056541
214,268.19375099999996,0.68600046634674,1.66675662994385,-0.66995310783386,0.5425411827710214,0.13051129117303978,0.857317399005501
215,268.202084,0.68533444404602,1.67303216457367,-0.62484633922577,0.5403587769488898,0.13175744183209487,0.859213556562151
216,268.210417,0.65628796815872,1.66335010528564,-0.59418624639511,0.5400358900731927,0.1327234506607051,0.8566308508113938
217,268.21875,0.71238303184509,1.71486020088196,-0.61127090454102,0.5413822738491755,0.12995424319286736,0.8605966762620572
218,268.227083,0.75413429737091,1.7054340839386,-0.60917055606842,0.5393170337287745,0.13110045267611123,0.8574223031803051
219,268.235416,0.70615887641907,1.74813330173492,-0.64884704351425,0.5418979391759754,0.13140047083095613,0.858220275567502
220,268.243749,0.6841561794281,1.8234646320343,-0.64262264966965,0.5421491058505317,0.13014604850691222,0.8582689324203806
221,268.252082,0.69061100482941,1.74267721176147,-0.59751605987549,0.5431554755386041,0.1299569558124153,0.8575343112556305
222,268.26041499999997,0.70031875371933,1.76070964336395,-0.62423169612885,0.5432463178829275,0.13046136924198673,0.8609608241489959
223,268.26874799999996,0.69847452640533,1.8077118396759,-0.64351922273636,0.5402478393243285,0.13178860654636324,0.8574040082036234
224,268.277081,0.67788070440292,1.82459151744843,-0.57256770133972,0.5419143851922479,0.1303791513248367,0.8566795076642714
225,268.285414,0.84104347229004,1.82863891124725,-0.67110586166382,0.5428614421766632,0.1320111751556398,0.8588938810387438
226,268.293747,0.69219905138016,1.74021828174591,-0.6690309047699,0.5414551131579337,0.12921742030552447,0.8626589483144337
227,268.30208,0.63282531499863,1.85968291759491,-0.66734045743942,0.5441075928357183,0.1312499386923653,0.8613124185678908
228,268.310413,0.52235102653503,1.88806366920471,-0.61298710107803,0.5418133249088214,0.13124965891546123,0.8559944191757509
229,268.318746,0.75631147623062,1.76590931415558,-0.65420037508011,0.5429571988631264,0.1307657056925245,0.8583570986377949
230,268.32707899999997,0.65226650238037,1.73996210098267,-0.68391287326813,0.5433056305865857,0.131984316572851,0.8575652570140601
231,268.33541199999996,0.71497017145157,1.81429481506348,-0.58468335866928,0.5414195449984806,0.1313962376847561,0.8585797523965643
232,268.343745,0.78592151403427,1.75986433029175,-0.71096152067184,0.5442753616644408,0.13144179266326325,0.8620251441488458
233,268.352078,0.64312225580215,1.66970241069794,-0.61129653453827,0.5407387383130132,0.13115126259472856,0.8588209930731325
234,268.360411,0.68712747097015,1.78909039497375,-0.69477331638336,0.5421290105702928,0.12865733127204693,0.858298029218401
235,268.368744,0.72201400995255,1.72251880168915,-0.7101674079895,0.5430941192471255,0.13049315433112957,0.8578321885089489
236,268.377077,0.6436088681221,1.72797465324402,-0.7314784526825,0.5412331892519582,0.130469847698601,0.858135807270906
237,268.38541,0.67798316478729,1.77669298648834,-0.7075292468071,0.543507118614352,0.13036650054308876,0.8587851816294142
238,268.393743,0.71765965223312,1.73886072635651,-0.67563951015472,0.5421847226668377,0.13285211154392754,0.8612349568581092
239,268.40207599999997,0.66650795936584,1.78491508960724,-0.64310938119888,0.5420525706544214,0.13098238682260305,0.8603823914819836
240,268.410409,0.65608298778534,1.83363342285156,-0.67325735092163,0.5419259655232337,0.13100071829192447,0.8606607086804448
241,268.418742,0.63300454616547,1.75046396255493,-0.70763164758682,0.5423947256438582,0.12949402234992244,0.857855933053153
242,268.427075,0.66868531703949,1.79339361190796,-0.6760750412941,0.5415390948860009,0.1296248606273102,0.8569321340444133
243,268.435408,0.69273692369461,1.68809330463409,-0.68949669599533,0.5408727879426918,0.1323992865426204,0.8585557159112427
244,268.443741,0.65907984972,1.75128352642059,-0.5518970489502,0.5413579940795897,0.13054243155888162,0.8613612700481805
245,268.452074,0.66955608129501,1.74313831329346,-0.65791434049606,0.5410462009663479,0.12989164615163978,0.8599188863014682
246,268.460407,0.73489797115326,1.82095432281494,-0.613345682621,0.5418135195362326,0.1310744577524612,0.859798606561155
247,268.46873999999997,0.58633542060852,1.8150886297226,-0.58998543024063,0.5409644087966612,0.13131814343588671,0.8606224643940826
248,268.47707299999996,0.67885410785675,1.70884096622467,-0.72407603263855,0.5418755083667989,0.13023707331443365,0.8580794626352735
249,268.485406,0.76886242628098,1.67958927154541,-0.60509783029556,0.5408954620361326,0.13119999243288674,0.8601031011464642
250,268.493739,0.77541971206665,1.85981106758118,-0.67315489053726,0.5413545394430357,0.13086119476629793,0.8579620049924264
251,268.502072,0.56079804897308,1.75200068950653,-0.73314332962036,0.5419665453385336,0.1318672481848265,0.8571950756773653
252,268.510405,0.64688748121262,1.73591506481171,-0.68888199329376,0.5411606418843173,0.13043840320742858,0.8576601378771724
253,268.518738,0.60733908414841,1.76780474185944,-0.66347271203995,0.5418756543373571,0.13079786787227754,0.8601065071261662
254,268.527071,0.68815207481384,1.64923655986786,-0.63022541999817,0.5421354819317254,0.12992854021033468,0.8594879812123826
255,268.53540399999997,0.60951632261276,1.67556798458099,-0.56967329978943,0.5403672918981438,0.13060043052751225,0.86016051623286
256,268.54373699999996,0.71650701761246,1.71614110469818,-0.74628359079361,0.5426287164493478,0.13038983150404285,0.8611175965289684
257,268.55207,0.6513699889183,1.81109273433685,-0.64144444465637,0.5416155834587254,0.1311185286969551,0.8567462648664204
258,268.560403,0.66112899780273,1.86145043373108,-0.5607596039772,0.5398115333245723,0.1312533568362796,0.8575636999947683
259,268.568736,0.63866525888443,1.75164210796356,-0.65061432123184,0.5420256634147795,0.1298490835695847,0.8591013538594151
260,268.577069,0.63346570730209,1.83194279670715,-0.64503049850464,0.5408468538401081,0.1320888801496857,0.8579142239629008
261,268.585402,0.74957495927811,1.86319220066071,-0.61462634801865,0.5407728467668805,0.13094150290197243,0.8568553535305723
262,268.593735,0.67916148900986,1.70802116394043,-0.61147576570511,0.5423973531139142,0.1302745634195755,0.8581022340424205
263,268.602068,0.73876577615738,1.69152557849884,-0.66065514087677,0.5411934366031571,0.13152481341848568,0.8582918011412326
264,268.61040099999997,0.78963559865952,1.7486709356308,-0.73314338922501,0.5417062311756368,0.13040722632894694,0.8582779825950153
265,268.61873399999996,0.66133391857147,1.73952662944794,-0.68529605865479,0.540520463671003,0.13095597831570407,0.8615359481500122
266,268.627067,0.73087656497955,1.79631352424622,-0.68601322174072,0.5425152000115846,0.1297928849045112,0.8597354499661194
267,268.6354,0.65436691045761,1.83919191360474,-0.71572577953339,0.5412808243109255,0.13090406145368264,0.8594088651696029
268,268.643733,0.69140499830246,1.73604321479797,-0.7136510014534,0.5382514486507489,0.1312692068061051,0.8572562859982856
269,268.652066,0.6716051697731,1.70861029624939,-0.65927189588547,0.5416300832008826,0.1299775619896092,0.8582348726233653
270,268.660399,0.70841294527054,1.77198016643524,-0.69672000408173,0.5403673405549959,0.13011440938832855,0.8613535822654255
271,268.668732,0.73971343040466,1.85053884983063,-0.789699614048,0.5423002340355694,0.13032693035748572,0.8602800174635284
272,268.67706499999997,0.67765015363693,1.86390936374664,-0.77333217859268,0.5418610572814938,0.13243137573709285,0.8561610202400051
273,268.68539799999996,0.79071146249771,1.66911315917969,-0.79044252634048,0.5398630609317704,0.13189634498284797,0.858828972797004
274,268.693731,0.65928471088409,1.72021353244781,-0.71170425415039,0.5423712243839183,0.1310924972806653,0.8598944605613245
275,268.702064,0.682337641716,1.73104858398438,-0.64508175849915,0.5411136393644367,0.13021942304105202,0.8587443098729968
276,268.710397,0.69360798597336,1.69851839542389,-0.67958414554596,0.5428207163908041,0.13092437568975918,0.8593442488689815
277,268.71873,0.63344013690948,1.79941296577454,-0.67971223592758,0.5414618278036316,0.13057821867417346,0.8579280425091184
278,268.727063,0.76491796970367,1.7228776216507,-0.54756832122803,0.5427162987845285,0.13136773693318265,0.8593683826680082
279,268.735396,0.80971717834473,1.68514764308929,-0.61142456531525,0.5419950582543194,0.13031223598791633,0.8605555125645225
280,268.743729,0.71783888339996,1.60179901123047,-0.68324691057205,0.5420063466441877,0.1314181697611908,0.8572256321809735
281,268.75206199999997,0.63203126192093,1.76301491260529,-0.74062281847,0.5418063669788591,0.131222642197901,0.8608879361833846
282,268.76039499999996,0.6707855463028,1.74598145484924,-0.66897976398468,0.5416302291714418,0.1299009639389663,0.860573807541205
283,268.768728,0.76161366701126,1.86413991451263,-0.67779105901718,0.5408847088716469,0.1317679517123163,0.8568486388848754
284,268.777061,0.82856917381287,1.76516652107239,-0.71920925378799,0.5412382009078041,0.12887591001938775,0.8588234259157764
285,268.785394,0.68264502286911,1.67072689533234,-0.76649314165115,0.5415243032027265,0.1302655132449408,0.8586804720820214
286,268.793727,0.80298060178757,1.81078541278839,-0.72179633378983,0.5405794844335438,0.13239075942915304,0.8593118434049642
287,268.80206,0.70349490642548,1.63535356521606,-0.63509213924408,0.5405480034497316,0.13037820251620508,0.8580539664443663
288,268.810393,0.78036338090897,1.75456237792969,-0.72141224145889,0.542752937394746,0.13012654927312142,0.8581846587511959
289,268.81872599999997,0.76486665010452,1.88734650611877,-0.625333070755,0.5413936108958969,0.1324055024555755,0.8599090576171876
290,268.82705899999996,0.77175688743591,1.74728775024414,-0.77328091859818,0.5417075449106642,0.12966626760910918,0.8610184338628031
291,268.835392,0.64253306388855,1.82933044433594,-0.65834981203079,0.5427235973124602,0.12954462547691528,0.8605259291979734
292,268.843725,0.71007776260376,1.74485445022583,-0.71680152416229,0.54307086127145,0.13055177367463366,0.8582856703777704
293,268.852058,0.70034438371658,1.90010249614716,-0.69182765483856,0.539730957576207,0.13060982130011733,0.8583502866783919
294,268.860391,0.74960058927536,1.76270747184753,-0.64413398504257,0.5424486860937,0.12955804260409592,0.8586067082930582
295,268.868724,0.6444029211998,1.88329935073853,-0.65097296237946,0.5416118855379061,0.13128604207720102,0.8591931206839428
296,268.877057,0.71110236644745,1.73220098018646,-0.52758914232254,0.5412749368317276,0.1293687796106143,0.8573933036959897
297,268.88539,0.73136329650879,1.76903450489044,-0.59818202257156,0.5421180141215418,0.12998747582338263,0.8608582555031286
298,268.89372299999997,0.70992404222488,1.81155383586884,-0.63862693309784,0.5407767879719632,0.13003279968183876,0.8608521247396663
299,268.902056,0.61917287111282,1.68612098693848,-0.66593164205551,0.5416042464120051,0.12927386225486326,0.862196027016153
300,268.910389,0.77792984247208,1.78476142883301,-0.76808124780655,0.5394902034681673,0.1303272344628163,0.8578892143405213
301,268.918722,0.65787595510483,1.77812731266022,-0.67100328207016,0.5414133169213122,0.12936806192203468,0.8582071382172255
302,268.927055,0.73653739690781,1.83038055896759,-0.64065045118332,0.5403607718798581,0.13206000230750306,0.8580103699041878
303,268.935388,0.73640936613083,1.89375019073486,-0.65532743930817,0.5427388269074112,0.13083659872716835,0.8595946370338908
304,268.943721,0.71637892723083,1.87451362609863,-0.65463578701019,0.5409479141235347,0.13024665871445,0.8578717951871908
305,268.952054,0.71481645107269,1.77812731266022,-0.72884023189545,0.5418421784225775,0.13088925760619488,0.8580054069051939
306,268.96038699999997,0.76153689622879,1.83921754360199,-0.62799710035324,0.5422718184334887,0.13061225414276123,0.858856901830556
307,268.96871999999996,0.65623676776886,1.72236526012421,-0.73521822690964,0.5403478778138449,0.13262456777144488,0.8601672308785571
308,268.977053,0.60301029682159,1.83942222595215,-0.63414436578751,0.5410794335968643,0.13082596720481426,0.8569967503450356
309,268.985386,0.69027805328369,1.7218017578125,-0.61583024263382,0.5420693086118112,0.13055899921728673,0.8580550368951294
310,268.993719,0.59453201293945,1.73222661018372,-0.68550091981888,0.5426993661997265,0.13151129897759897,0.8563575939256315
311,269.002052,0.66322928667068,1.78432595729828,-0.67994266748428,0.5417178601634745,0.12960021593132753,0.857123063535106
312,269.010385,0.66151332855225,1.84183013439178,-0.63081461191177,0.5428889819553918,0.13030085028434285,0.8574943153225641
313,269.018718,0.63128846883774,1.82251667976379,-0.67487108707428,0.5399974511594183,0.13012855636830203,0.8582680565970285
314,269.027051,0.69299310445786,1.93099308013916,-0.70906609296799,0.5407180591505398,0.12958210341784387,0.8582005208852336
315,269.03538399999996,0.66681534051895,1.79851627349854,-0.74925476312637,0.540689448921048,0.13000404348178776,0.8586255871519756
316,269.043717,0.70021641254425,1.77487456798553,-0.70750361680984,0.5413570209425326,0.12970634869166733,0.8573888272655255
317,269.05205,0.73336118459702,1.78181576728821,-0.65064001083374,0.5418977445485643,0.12978012464484387,0.8574453665285694
318,269.060383,0.8504438996315,1.78734862804413,-0.68288832902908,0.5403063735183408,0.12997225839264487,0.8607392408409896
319,269.068716,0.72265446186066,1.83883321285248,-0.72535669803619,0.5416674516638927,0.1316915482890847,0.8586096277042305
320,269.077049,0.65756863355637,1.75182139873505,-0.7379332780838,0.5422265675603122,0.131010680782552,0.8629840734053632
321,269.085382,0.71384316682816,1.88286423683167,-0.68422037363052,0.5420176350340551,0.1308757310010949,0.8591973051732897
322,269.093715,0.82652002573013,1.75696992874146,-0.66823691129684,0.5430152464886101,0.12928251101046223,0.8604623833481142
323,269.10204799999997,0.71158909797668,1.77812731266022,-0.65660810470581,0.5418351231789102,0.13260909489222958,0.857642816037548
324,269.11038099999996,0.6948117017746,1.85973417758942,-0.74966460466385,0.5402778606025541,0.13293498632859183,0.8578756877354214
325,269.118714,0.71205008029938,1.92499923706055,-0.69374865293503,0.5401900836399622,0.12917899355596427,0.8572322495129643
326,269.127047,0.72513896226883,1.81944310665131,-0.62948262691498,0.5392476977134234,0.13052267687661326,0.8613712933598734
327,269.13538,0.77623945474625,1.89792513847351,-0.74505400657654,0.5416357760526694,0.13053621564592652,0.8597210475376673
328,269.143713,0.74393981695175,1.85975980758667,-0.66124421358109,0.5418268028570683,0.12966283730098163,0.8597798250159439
329,269.152046,0.72608679533005,1.80043745040894,-0.6424178481102,0.5420840029813806,0.13009742814667344,0.8589393265393315
330,269.160379,0.74906259775162,1.85763394832611,-0.63419556617737,0.5418034962245397,0.1309221496387408,0.8593050314455613
331,269.16871199999997,0.67352628707886,1.86939096450806,-0.68406653404236,0.542026879836102,0.1323110838325653,0.858355541618503
332,269.17704499999996,0.68064701557159,1.84887373447418,-0.61004137992859,0.5401092159504796,0.13111841921903672,0.8593010415836254
333,269.185378,0.73261845111847,1.85522651672363,-0.63721817731857,0.541495984914351,0.12959081299450917,0.8573438683334663
334,269.193711,0.73582005500793,1.99169898033142,-0.72020822763443,0.540075837349405,0.1310904050359918,0.8590400462247887
335,269.202044,0.64217442274094,1.76877808570862,-0.64141887426376,0.5411879383787815,0.13111321293577857,0.8605294324913805
336,269.210377,0.70777249336243,1.80876195430756,-0.61667543649673,0.5409273809316204,0.12908586433955613,0.8604163539652917
337,269.21871,0.70013946294785,1.82395124435425,-0.68632060289383,0.5428960858559122,0.13252951660934795,0.8569343722596457
338,269.227043,0.64821946620941,1.658278465271,-0.5914198756218,0.5404945782252724,0.1304410428416969,0.8580343090758029
339,269.235376,0.73354041576385,1.82607710361481,-0.68970167636871,0.5408616941802357,0.13083678119036632,0.8591468966737081
340,269.24370899999997,0.69788545370102,1.70118236541748,-0.62377065420151,0.5417294404944591,0.12775745927071122,0.857786548380949
341,269.25204199999996,0.65582680702209,1.76127314567566,-0.68009632825851,0.5410229916475255,0.13004677636282755,0.8590639853964049
342,269.260375,0.71806955337524,1.70976316928864,-0.73345082998276,0.5410628416100326,0.12942298334472038,0.8634923428905255
343,269.268708,0.68223518133163,1.83985793590546,-0.64661860466003,0.5405629411035652,0.12973135831404692,0.8590752737862725
344,269.277041,0.67262977361679,1.83652770519257,-0.70414811372757,0.5397568916787908,0.13147899082728776,0.8611860080641143
345,269.285374,0.70462191104889,1.92809855937958,-0.58493942022324,0.5413727857628642,0.13116374307749185,0.8587366220902428
346,269.293707,0.67314201593399,1.72651469707489,-0.66992747783661,0.5416559686466142,0.1320423641983347,0.8559804060021224
347,269.30204,0.69442749023438,1.77605247497559,-0.74817901849747,0.5411277011949194,0.13006580119230307,0.8574012834198622
348,269.31037299999997,0.74534863233566,1.71770334243774,-0.600794672966,0.5418906893048969,0.13233319837219895,0.8598726622912346
349,269.31870599999996,0.8125347495079,1.7789980173111,-0.69313395023346,0.5403815483560367,0.13276634167651732,0.8591293802066724
350,269.327039,0.73466747999191,1.7369909286499,-0.61992859840393,0.5402045347252673,0.13071196419852144,0.8583127235879703
351,269.335372,0.76640355587006,1.80515050888062,-0.5730544924736,0.5417071556558417,0.12907351766313774,0.8595329401444417
352,269.343705,0.63792246580124,1.91395974159241,-0.79016065597534,0.541715865232506,0.13149001160446427,0.8565624392762479
353,269.352038,0.74939572811127,1.77746152877808,-0.64818108081818,0.5412626266479489,0.1292927654422061,0.8600735177799143
354,269.360371,0.70490372180939,1.82082617282867,-0.73998242616653,0.5424983160836356,0.12864342757633773,0.8584459460511499
355,269.368704,0.66612374782562,1.92038881778717,-0.7016379237175,0.5408490920553398,0.1307804608831602,0.8609779513612081
356,269.377037,0.67122107744217,1.81250190734863,-0.58176332712173,0.5418393076682582,0.12853815847513672,0.8584049769810266
357,269.38536999999997,0.68666642904282,1.86516439914703,-0.70711934566498,0.5411339292720878,0.13136722603622752,0.8602325283751193
358,269.39370299999996,0.69204533100128,1.78645193576813,-0.7120116353035,0.541715719261948,0.1287317032716714,0.8582337048588968
359,269.402036,0.63333755731583,1.81498622894287,-0.61905759572983,0.5416550928232622,0.13027159535155,0.8570113474008989
360,269.410369,0.63279968500137,1.82612860202789,-0.56508851051331,0.5442442699354519,0.12842495830691633,0.8599269633390468
361,269.418702,0.74255663156509,1.8420604467392,-0.70012670755386,0.5412171324905081,0.13143906787950202,0.8552554188942418
362,269.427035,0.64873170852661,1.841548204422,-0.59282863140106,0.5416927532273897,0.13061928505800202,0.859809505696199
363,269.435368,0.75546622276306,1.70253968238831,-0.66342151165009,0.5418572620469694,0.13074463727522856,0.8585174716248806
364,269.443701,0.66553467512131,1.63261282444,-0.63983070850372,0.5412143103930418,0.12833173177680204,0.8604707523268093
365,269.45203399999997,0.72250080108643,1.78524827957153,-0.7433123588562,0.5441265690083408,0.13112849118758266,0.8570547493136662
366,269.46036699999996,0.71351009607315,1.84444260597229,-0.69577223062515,0.5402579112928744,0.1309252636773245,0.8588372444619939
367,269.4687,0.70585149526596,1.7106339931488,-0.60389405488968,0.5421076502118795,0.1333733237519561,0.8580925026718449
368,269.477033,0.68308037519455,1.84049820899963,-0.67733007669449,0.5418712752205989,0.1307195181749306,0.8592446969479928
369,269.485366,0.63766634464264,1.77659046649933,-0.68862581253052,0.5399259255856887,0.12988830099300508,0.8608075550624306
370,269.493699,0.59115093946457,1.75230824947357,-0.68393850326538,0.5421139269459,0.13022931254639897,0.8581031098657724
371,269.502032,0.65682578086853,1.88417029380798,-0.77253812551498,0.541215332186952,0.1286369562149051,0.85933695034105
372,269.510365,0.73704957962036,1.84280323982239,-0.62653696537018,0.5445217599674143,0.1289450635715408,0.8597901402687541
373,269.518698,0.65444368124008,1.6904753446579,-0.59910410642624,0.5415824967987682,0.12976227974405102,0.8599454529431397
374,269.52703099999997,0.68541133403778,1.82656383514404,-0.59257245063782,0.5400163786751887,0.12955137661525204,0.8581556592668805
375,269.535364,0.63418281078339,1.77523291110992,-0.68342620134354,0.5421699796404152,0.13035843566972344,0.860009096106704
376,269.543697,0.67765015363693,1.80079579353333,-0.59515953063965,0.5431070619699908,0.12997869326143877,0.857789954360651
377,269.55203,0.79442548751831,1.67825746536255,-0.599180996418,0.5418209153778694,0.1291203012271806,0.8566696789799907
378,269.560363,0.73707520961761,1.75225710868835,-0.60181927680969,0.543174938279755,0.1307411096533949,0.859110501347756
379,269.568696,0.63764077425003,1.78760457038879,-0.64059919118881,0.5413790138400326,0.12971605573381734,0.8571419423940233
380,269.577029,0.58018803596497,1.78138029575348,-0.63616794347763,0.5434326249725969,0.12987945760999386,0.8601381340805366
381,269.585362,0.71945267915726,1.73012638092041,-0.64807862043381,0.5405458625482051,0.1303062268665857,0.860273692072654
382,269.59369499999997,0.7140479683876,1.70822608470917,-0.70373827219009,0.5416296939460602,0.13179737694409388,0.8600279749656213
383,269.60202799999996,0.6705549955368,1.79016602039337,-0.72868645191193,0.5409331224402602,0.13018745548871122,0.859173852570203
384,269.610361,0.68689692020416,1.83558011054993,-0.79674357175827,0.5401664364094632,0.12999492032187346,0.8585045289020152
385,269.618694,0.67708665132523,1.76785600185394,-0.6300972700119,0.5416614668709887,0.1328376482944102,0.8590765388644469
386,269.627027,0.69581061601639,1.81101596355438,-0.66226881742477,0.5426493956118214,0.1308313924439102,0.8594782498418071
387,269.63536,0.79145437479019,1.70835435390472,-0.74128884077072,0.5425584559537928,0.12983093456346123,0.8611300526833051
388,269.643693,0.63756400346756,1.735915184021,-0.72335886955261,0.5423369213026398,0.13166658732355815,0.8566968295038958
389,269.652026,0.71294665336609,1.70732986927032,-0.64077860116959,0.5430019631677745,0.12968357728452143,0.8578160344337928
390,269.66035899999997,0.69002187252045,1.80499660968781,-0.71418887376785,0.540403784537802,0.1316157774049408,0.856437488478057
391,269.66869199999996,0.69255763292313,1.8110671043396,-0.65724843740463,0.5404776456404704,0.13208360088114793,0.8591996407022284
392,269.677025,0.76135748624802,1.74895262718201,-0.77025836706161,0.5418275327098612,0.13067871940379283,0.8584261913688817
393,269.685358,0.73889374732971,1.77753818035126,-0.63360643386841,0.5408653921010541,0.13037711990122855,0.8558834815511898
394,269.693691,0.6275486946106,1.77979230880737,-0.60940104722977,0.5417285646711081,0.13037524661239283,0.8564609410811438
395,269.702024,0.74529737234116,1.82469403743744,-0.69172519445419,0.5416147562922266,0.13052223896493673,0.8579648270898939
396,269.710357,0.71868425607681,1.72956275939941,-0.68304198980331,0.5400261100457643,0.13113257836322348,0.8585706049082233
397,269.71869,0.74404233694077,1.68573701381683,-0.69992178678513,0.5418308900327102,0.1299590723855153,0.8580879289276744
398,269.727023,0.79317033290863,1.74938821792603,-0.6589390039444,0.5406777226195041,0.13190386246661734,0.861608544174506
399,269.73535599999997,0.68986821174622,1.90965640544891,-0.57121020555496,0.5426004468178265,0.12944018354221223,0.8599282284172213
400,269.74368899999996,0.67265540361404,1.68081891536713,-0.56905859708786,0.5416309103673816,0.13038104894209895,0.8569184128119021
401,269.752022,0.59371238946915,1.78875744342804,-0.680608689785,0.5405300490710203,0.13125788192359794,0.8571366874539121
402,269.760355,0.76502031087875,1.74032068252563,-0.63519459962845,0.5414131222938999,0.13067878022485815,0.8599266713979296
403,269.768688,0.69099521636963,1.85712158679962,-0.64720767736435,0.5429198304001163,0.12919335949177652,0.8595654429221643
404,269.777021,0.70900189876556,1.86682951450348,-0.62384748458862,0.5422910865472286,0.13089971882956325,0.8565990292296123
405,269.785354,0.76668524742126,1.6094833612442,-0.65850353240967,0.5416929478548009,0.1310774988057663,0.8581441762496009
406,269.793687,0.76225405931473,1.67267370223999,-0.69295477867126,0.541660834331902,0.13189825476432346,0.8622239560497049
407,269.80201999999997,0.75738734006882,1.76578152179718,-0.67507600784302,0.5410231862749367,0.13001078245591122,0.8560682802784203
408,269.81035299999996,0.56899470090866,1.64736688137054,-0.72860980033875,0.5401296518286877,0.13121523419205,0.8612502351099133
409,269.818686,0.7287250161171,1.69326734542847,-0.65315014123917,0.5420250795325459,0.13147593760976936,0.8588757806894733
410,269.827019,0.67839300632477,1.71278560161591,-0.5866813659668,0.5420665351711969,0.1300332011008745,0.8610409133288326
411,269.835352,0.67173320055008,1.89989733695984,-0.60940104722977,0.5419794394045458,0.1295103223956357,0.8585926951194296
412,269.843685,0.70241910219193,1.76567888259888,-0.65566027164459,0.5426731888128785,0.13088455005567856,0.8570395683755683
413,269.852018,0.67419224977493,1.60861217975616,-0.57146632671356,0.5406386998234959,0.13107833813647857,0.8552098760799489
414,269.860351,0.68051904439926,1.69818520545959,-0.57889449596405,0.5406073161533897,0.13095414151950716,0.8578854191059968
415,269.868684,0.76901626586914,1.68814468383789,-0.58406865596771,0.5414315632411408,0.12980672777915508,0.8571165435168203
416,269.87701699999997,0.61965960264206,1.68630027770996,-0.53860330581665,0.5410681452069959,0.12926545678352855,0.8581428138577204
417,269.88534999999996,0.77188497781754,1.83004760742188,-0.52003306150436,0.541619330036397,0.1318591954756755,0.8581145928830519
418,269.893683,0.56932759284973,1.8575314283371,-0.50702095031738,0.5412558146885459,0.12991931973671428,0.8618317818155091
419,269.902016,0.57731926441193,1.84065175056458,-0.58468329906464,0.5412010757290592,0.1319838421685357,0.8552624254810571
420,269.910349,0.63986921310425,1.87584555149078,-0.52513021230698,0.5402746979071172,0.13223913251137243,0.8575403447053866
421,269.918682,0.67749661207199,1.78222584724426,-0.57756263017654,0.5413981846400673,0.12900256380742958,0.8591761880991408
422,269.927015,0.65877252817154,1.82164585590363,-0.52671831846237,0.542283788019297,0.1332197870527,0.858809412742148
423,269.935348,0.48933440446854,2.0478196144104,-0.70978331565857,0.5435363613829316,0.13251102700525405,0.8589664770632377
424,269.94368099999997,0.72516453266144,1.69521403312683,-0.56939154863358,0.5424063059748438,0.13048291206359897,0.8578387085272335
425,269.95201399999996,0.64839869737625,1.85578978061676,-0.70609480142593,0.5405244048760857,0.13066111778726427,0.8638655409520989
426,269.960347,0.67365437746048,1.82884359359741,-0.58829492330551,0.5408505031040735,0.13075706910113877,0.8617322298945214
427,269.96868,0.56960934400558,1.69001436233521,-0.70847690105438,0.5410399728891796,0.13085950394066018,0.8631949522057356
428,269.977013,0.64880865812302,1.83514487743378,-0.70783656835556,0.542229681598897,0.12975020068032447,0.8597504362768061
429,269.985346,0.80236583948135,1.65697193145752,-0.57584643363953,0.5399928287583958,0.12864217466237549,0.8624208216764488
430,269.993679,0.66581642627716,1.79183101654053,-0.56939160823822,0.5414129276664887,0.12970693257390203,0.8621002703296898
431,270.002012,0.61374258995056,1.80848026275635,-0.55130797624588,0.540676068286506,0.13059033423053978,0.8581372669764928
432,270.010345,0.6670715212822,1.87879121303558,-0.51137536764145,0.5415754902119541,0.130475552714601,0.8568110757944529
433,270.01867799999997,0.5872830748558,1.78990983963013,-0.62684434652328,0.5416903203847458,0.13099542685917448,0.8583163241950836
434,270.027011,0.65024292469025,1.85007774829865,-0.64395475387573,0.5414133655781653,0.13117117541176937,0.8569494558840378
435,270.035344,0.74091750383377,1.89246940612793,-0.61559975147247,0.5422546912212766,0.13284002031598774,0.8601288892784896
436,270.043677,0.62109392881393,1.89682364463806,-0.63109636306763,0.5424478102703478,0.13310409322076938,0.8578317019404192
437,270.05201,0.65631353855133,1.91772484779358,-0.64692586660385,0.5419815803060724,0.129305367567101,0.8625894663285234
438,270.060343,0.74309468269348,1.8869366645813,-0.70309799909592,0.5407807291770469,0.13150404910652042,0.861245758679448
439,270.068676,0.73738259077072,1.81065738201141,-0.70491653680801,0.5406781605311806,0.1316122254546806,0.861233205211406
440,270.077009,0.71043634414673,1.85532867908478,-0.66872358322144,0.542927177584901,0.13137110642024488,0.8600076364011183
441,270.08534199999997,0.75198268890381,1.87151706218719,-0.72251355648041,0.541043719466852,0.13196559584870612,0.8604171324749376
442,270.09367499999996,0.75190579891205,1.9360134601593,-0.80870532989502,0.5428950640620019,0.1300191879272459,0.8599545031177753
443,270.102008,0.82431727647781,1.76898300647736,-0.74715441465378,0.5403605285955938,0.13044751420312958,0.8581482634252428
444,270.110341,0.70971918106079,1.89769470691681,-0.62702363729477,0.5417825251209489,0.13209145896288774,0.8593202123836591
445,270.118674,0.65838825702667,1.85412466526031,-0.69856423139572,0.5418571160764112,0.13044988622470816,0.8593139843064908
446,270.127007,0.78510189056396,1.86600983142853,-0.72901952266693,0.5429193438315877,0.1305586707835296,0.8567964787385898
447,270.13534,0.71105116605759,1.91854441165924,-0.73716485500336,0.5419288362775531,0.13154297458882244,0.8597269836737182
448,270.143673,0.77598321437836,1.84387898445129,-0.61152702569962,0.5404612969379041,0.13109917543372346,0.8600571690773479
449,270.152006,0.71538001298904,1.90368854999542,-0.70629972219467,0.5420062493304816,0.12996213776724694,0.859571184430804
450,270.16033899999996,0.65165168046951,1.79242014884949,-0.7312735915184,0.5408293860299245,0.13043750305565,0.8590753710999786
451,270.168672,0.64998692274094,1.84441709518433,-0.61962121725082,0.5434210446416112,0.13077490183771837,0.8579210359223031
452,270.177005,0.66994029283524,1.8222861289978,-0.64915430545807,0.5430820523476112,0.1301755832166092,0.8601973008136355
453,270.185338,0.66002762317657,1.79580104351044,-0.58811563253403,0.5410847858506805,0.1306430052737796,0.858598047373246
454,270.193671,0.63408041000366,1.97914803028107,-0.64477431774139,0.5410138928160377,0.12995498520987347,0.8554946159829898
455,270.202004,0.61912173032761,1.93147993087769,-0.62310469150543,0.5409302030290878,0.1297413451331,0.8592789513724194
456,270.210337,0.72408878803253,1.70187377929688,-0.68737077713013,0.5439590921207346,0.12998490917439387,0.8594449685544386
457,270.21867,0.66335755586624,2.04940795898438,-0.69830816984177,0.5424683921191154,0.131902743359001,0.861968702199508
458,270.22700299999997,0.675088763237,1.76526892185211,-0.69223755598068,0.5414759869478184,0.13042234644597855,0.8593103836993785
459,270.23533599999996,0.77372914552689,1.70256531238556,-0.76585280895233,0.5421183060626591,0.12995728424617245,0.8596183815780949
460,270.243669,0.8111771941185,1.74664735794067,-0.69303154945374,0.5422261296486367,0.12961829195217242,0.8609426264860194
461,270.252002,0.69148188829422,1.76281011104584,-0.57638436555862,0.5452659665321816,0.13218498959833264,0.8610770167136683
462,270.260335,0.72360211610794,1.8217738866806,-0.68534725904465,0.5413227665181061,0.12932451403870918,0.8615935578638193
463,270.268668,0.66425395011902,1.75238502025604,-0.58773136138916,0.5412243823615868,0.1313369128168847,0.8584897372187398
464,270.277001,0.74752587080002,1.82131290435791,-0.52538645267487,0.5409975441134703,0.13252974772939896,0.8565909521920336
465,270.285334,0.79009664058685,1.79364955425262,-0.71938854455948,0.5417263751127285,0.13190591821865205,0.8599558655096561
466,270.29366699999997,0.71896594762802,1.75676500797272,-0.75763064622879,0.5408631538858214,0.13140131016166834,0.8588455161269826
467,270.30199999999996,0.67388492822647,1.81255316734314,-0.61180877685547,0.5422244266587857,0.13315438007821837,0.8582061650801672
468,270.310333,0.69342863559723,1.94008600711823,-0.7646232843399,0.5426616084818939,0.13215719437112652,0.858544914089903
469,270.318666,0.74117344617844,1.7652176618576,-0.6477455496788,0.5421318813246122,0.1313861292235704,0.8601921431872305
470,270.326999,0.85321009159088,1.76867568492889,-0.67612618207932,0.5433663056821234,0.13151156659028979,0.8570911446396183
471,270.335332,0.73973912000656,1.81506299972534,-0.6949782371521,0.5449833675306673,0.13161617882397755,0.8591639265722152
472,270.343665,0.73423206806183,1.82492458820343,-0.6600404381752,0.541791867236702,0.12970811250258468,0.8591845570778356
473,270.351998,0.69639980792999,1.74162709712982,-0.70617169141769,0.5428410549553071,0.13159798116100102,0.8633763449532643
474,270.360331,0.73469310998917,1.72536206245422,-0.79589825868607,0.542943283003204,0.1307239337843296,0.8619418436167192
475,270.36866399999997,0.80372339487076,1.774054646492,-0.69103360176086,0.5420767044534489,0.12874464599453672,0.8581793064973795
476,270.37699699999996,0.75915467739105,1.82097995281219,-0.72392231225967,0.5423966232611204,0.13275932292548978,0.8554853711809428
477,270.38533,0.7735498547554,1.81639492511749,-0.64935922622681,0.5424338944104254,0.12997348697818062,0.8607295094704143
478,270.393663,0.78753525018692,1.76519203186035,-0.70261120796204,0.5428549221583775,0.12906618264256733,0.8585558132249479
479,270.401996,0.68638461828232,1.91134691238403,-0.75645238161087,0.5419696107202643,0.13113459762261834,0.8590228216988702
480,270.410329,0.77439522743225,1.84825897216797,-0.77338343858719,0.5421952812039121,0.13329408606704385,0.8573511668613978
481,270.418662,0.72193729877472,1.75492095947266,-0.73537188768387,0.542191729253652,0.1307297239498214,0.8597839121915858
482,270.426995,0.86350703239441,1.68922030925751,-0.80686122179031,0.5415962180312796,0.1306074127859,0.8595118230702928
483,270.43532799999997,0.78102922439575,1.770827293396,-0.74262070655823,0.5405346228151907,0.1316298513996357,0.8575129995540692
484,270.44366099999996,0.75044590234756,1.66263294219971,-0.76792764663696,0.5404643136627816,0.13286139283861428,0.8566759070571591
485,270.451994,0.80526036024094,1.66294026374817,-0.82125645875931,0.5424074250824602,0.13138520474336632,0.8588182682893714
486,270.460327,0.82639199495316,1.66826784610748,-0.79525792598724,0.541617773017105,0.13058975034830508,0.856680091546506
487,270.46866,0.80280137062073,1.72300553321838,-0.78762489557266,0.5421630703673072,0.13182238656647347,0.8597491711986306
488,270.476993,0.85016202926636,1.81629240512848,-0.81013989448547,0.5416345596313479,0.13242440564291835,0.8592888773704062
489,270.485326,0.8226780295372,1.8408055305481,-0.80061143636703,0.5413433483668735,0.13018683511383672,0.8592096640139213
490,270.493659,0.88955676555634,1.93058335781097,-0.85678344964981,0.5406744626103612,0.13064412438139592,0.8618347985403878
491,270.501992,0.72183465957642,1.7358638048172,-0.84471899271011,0.5414879565336265,0.1309355424374949,0.8570749905644632
492,270.51032499999997,0.77711033821106,1.91372919082642,-0.77822452783585,0.5412935724063795,0.13162925535318776,0.862190090880102
493,270.51865799999996,0.81988608837128,1.7589168548584,-0.85009813308716,0.54267693539055,0.12942846940488265,0.8614079806269427
494,270.526991,0.77547097206116,1.88045608997345,-0.73329710960388,0.5407673485425051,0.13072929820235915,0.8608593259538917
495,270.535324,0.77606016397476,1.87092781066895,-0.63801217079163,0.5428732171350592,0.13194956341568265,0.8570496890009663
496,270.543657,0.74555349349976,1.80251216888428,-0.83788001537323,0.5432179022808459,0.13102807560745508,0.8584697879090603
497,270.55199,0.77129578590393,1.87456488609314,-0.74367082118988,0.5409368203610785,0.12772479835821632,0.8587057736455174
498,270.560323,0.73284876346588,1.81109273433685,-0.69912773370743,0.541752114587901,0.13046299924655816,0.8609311434687398
499,270.568656,0.67823934555054,1.88207018375397,-0.80509388446808,0.5410761735877213,0.13053572907739797,0.8597999689530356
500,270.57698899999997,0.67647188901901,1.92858529090881,-0.64605498313904,0.5413191172541407,0.12991691122249693,0.860056487881407
501,270.58532199999996,0.7690417766571,1.87395012378693,-0.72586899995804,0.5406863348824632,0.1296256756295959,0.8605163924548092
502,270.593655,0.69770622253418,1.96544432640076,-0.78483301401138,0.5412215116072673,0.1299921712096857,0.8580061854148398
503,270.601988,0.72536957263947,2.09182500839233,-0.79154396057129,0.5426824336149255,0.12990525790623264,0.8577919006347652
504,270.610321,0.74432414770126,2.01412415504456,-0.82085943222046,0.5422343526567734,0.13039039105785102,0.8576019442811306
505,270.618654,0.80264765024185,1.87999510765076,-0.64554274082184,0.5432511835682153,0.13083291297056224,0.8563530201814612
506,270.626987,0.75997430086136,1.76296377182007,-0.61557406187057,0.5433091825368449,0.1330207440317898,0.8584279430155847
507,270.63532,0.65708190202713,1.95655620098114,-0.59490346908569,0.5420014323020469,0.1310291947150714,0.8587420716577643
508,270.643653,0.77752006053925,1.79792714118958,-0.54464823007584,0.5431856427873887,0.12996435165405304,0.858395245610451
509,270.65198599999997,0.78077310323715,1.78716921806335,-0.7082976102829,0.5421560637804929,0.1305176408923398,0.8612065412560286
510,270.660319,0.7335404753685,1.75066888332367,-0.57325941324234,0.5410494123186387,0.1298895539069663,0.8594879812123826
511,270.668652,0.75044578313828,1.7747974395752,-0.66600847244263,0.5443141898330378,0.12968765229595,0.8580461813479051
512,270.676985,1.00085067749023,1.57918155193329,-0.67005556821823,0.543942451477051,0.13106566302630407,0.8569597711368478
513,270.685318,0.83389699459076,1.86390936374664,-0.68957358598709,0.5411795207432336,0.1321095471479459,0.8595415037505478
514,270.693651,1.0283088684082,1.79736340045929,-0.67528086900711,0.5436841809019755,0.12977733904001632,0.8594259923818163
515,270.701984,0.88914686441422,1.8071995973587,-0.63739740848541,0.5420879928433163,0.1287807250509459,0.8584302785445234
516,270.710317,1.02016365528107,1.65699756145477,-0.76610887050629,0.5402660369873051,0.13061135399098264,0.8570662323309448
517,270.71864999999997,0.96832054853439,1.77318370342255,-0.74077641963959,0.5412873443292112,0.1317484889711653,0.8585637929488202
518,270.72698299999996,1.05210471153259,1.73010087013245,-0.83636891841888,0.5438316598230479,0.1279805266127296,0.8582396409949479
519,270.735316,1.04395937919617,1.78278934955597,-0.87863236665726,0.5408456860756388,0.13098991647058572,0.8580273024889887
520,270.743649,1.064169049263,1.58581578731537,-0.70332854986191,0.5440021047786786,0.1309302145121051,0.8573688779558459
521,270.751982,0.85928070545197,1.6421924829483,-0.65537863969803,0.5419865433050663,0.13202195264855204,0.8582916065138213
522,270.760315,1.14073002338409,1.72564387321472,-0.66393381357193,0.5419381297364531,0.12867256086699796,0.8614922542961275
523,270.768648,1.04644405841827,1.52116549015045,-0.77865999937057,0.5412870523880938,0.1312410588167153,0.8590594116522335
524,270.776981,0.91245597600937,1.67077827453613,-0.62607598304749,0.5428913174843306,0.12763138936490406,0.859684457584303
525,270.78531399999997,0.92195868492126,1.58386886119843,-0.69049566984177,0.5421031737814143,0.12903460434504896,0.8585344042096815
526,270.79364699999996,1.08514702320099,1.73250830173492,-0.72374296188354,0.5418508879992429,0.13044090903535202,0.857581119148099
527,270.80198,0.85682171583176,1.54035043716431,-0.5455447435379,0.5412570311098683,0.12919924697097449,0.8590884111365489
528,270.810313,0.86458283662796,1.63584017753601,-0.67599803209305,0.5424313155972224,0.1306095658516398,0.8616125340364419
529,270.818646,0.72170674800873,1.65410339832306,-0.67968660593033,0.5398902601125285,0.1313406958871959,0.8601048527931684
530,270.826979,0.80210965871811,1.67080366611481,-0.63865250349045,0.5414091810888173,0.129942772339801,0.8608950400839049
531,270.835312,0.83753424882889,1.7089432477951,-0.58832055330276,0.5409397884291041,0.13160164258917958,0.8570148506943059
532,270.843645,0.7167375087738,1.74418830871582,-0.6474381685257,0.540807052534454,0.130138676993701,0.8546558691530817
533,270.851978,0.76599377393723,1.73758018016815,-0.62925213575363,0.5420632751620541,0.12857372663458977,0.8584211310561826
534,270.86031099999997,0.70900201797485,1.66181325912476,-0.625896692276,0.5423099167492929,0.13003318893666121,0.8577660151890347
535,270.86864399999996,0.56720167398453,1.62992346286774,-0.57272148132324,0.5407911417435621,0.13159547533307753,0.8560186502884847
536,270.876977,0.60003900527954,1.69275510311127,-0.57715272903442,0.5428399358476909,0.12920985416490202,0.8568210991061459
537,270.88531,0.90251749753952,1.57001149654388,-0.52410566806793,0.5418651444571356,0.12838876977258776,0.8603905658332672
538,270.893643,0.68010914325714,1.70323121547699,-0.51324516534805,0.5418408160306969,0.1300310358709214,0.8587854735705315
539,270.901976,0.56333380937576,1.74183201789856,-0.53576016426086,0.5404927779217152,0.13029822281428774,0.8595345944774397
540,270.910309,0.490563839674,1.70207870006561,-0.49467492103577,0.5414003741984469,0.13281638524970205,0.8578235275891367
541,270.918642,0.67880284786224,1.76957213878632,-0.5084553360939,0.5435004039686551,0.13054638492817752,0.8598262436535896
542,270.92697499999997,0.67052948474884,1.78486406803131,-0.53176432847977,0.5431584922634826,0.12917589168159285,0.8606537994073356
543,270.93530799999996,0.67882841825485,1.7588142156601,-0.52039158344269,0.5447149276733397,0.13073638993866632,0.8578159371200877
544,270.943641,0.5828263759613,1.6738007068634,-0.51849621534348,0.5423021803096847,0.1280360684102898,0.8594607333747704
545,270.951974,0.46220877766609,1.67649006843567,-0.51854735612869,0.5416132965866397,0.12984134712997752,0.8558656731430366
546,270.960307,0.60452151298523,1.6099442243576,-0.54541671276093,0.5425633216390806,0.1301791230026561,0.8585410215416734
547,270.96864,0.67823928594589,1.69547009468079,-0.54731214046478,0.5412445749555316,0.13141549363428262,0.8578266416277204
548,270.976973,0.48426276445389,1.60441172122955,-0.40156722068787,0.5442846064664878,0.13128964268431326,0.8602263976116571
549,270.985306,0.67893093824387,1.42285799980164,-0.3435252904892,0.5412782454977234,0.1297832265192153,0.8584981061974346
550,270.993639,0.66694343090057,1.49319458007812,-0.43363612890244,0.5427488502191041,0.13178270690295202,0.8590815018634408
551,271.00197199999997,0.70759320259094,1.58973467350006,-0.47725722193718,0.5418038854793622,0.13056318370663367,0.8587626048496796
552,271.01030499999996,0.61927527189255,1.55831873416901,-0.56279593706131,0.5422310926476306,0.1345062742427908,0.8572182363393357
553,271.018638,0.58451682329178,1.58497035503387,-0.53844964504242,0.5415586062840051,0.1291716342069663,0.8605849986173674
554,271.026971,1.02221286296844,1.34619450569153,-0.48747727274895,0.5392571371428816,0.12839732121448164,0.857914321276606
555,271.035304,0.2843180000782,1.62695217132568,-0.50594508647919,0.5434301434730999,0.13514010273680407,0.8572360447474888
556,271.043637,0.76376533508301,1.47680163383484,-0.55625158548355,0.5408290940888071,0.12470258741962652,0.8596947728371132
557,271.05197,0.7778018116951,1.4594863653183,-0.55786520242691,0.5412357680651602,0.13110586575099387,0.8595026755819509
558,271.060303,0.56008088588715,1.63089692592621,-0.61787939071655,0.540767299885652,0.13231493988815612,0.8582351645644826
559,271.06863599999997,0.7535195350647,1.56942248344421,-0.63662898540497,0.5400156974792479,0.1299148676346755,0.8564971417796856
560,271.07696899999996,0.60616081953049,1.56186628341675,-0.53430008888245,0.5413620812552317,0.1296292762367092,0.8577264085107917
561,271.085302,0.51333487033844,1.53335773944855,-0.4949566423893,0.5417376148457429,0.1313581515331653,0.8587937452355214
562,271.093635,0.39858305454254,1.48935234546661,-0.5206732749939,0.5412089094823723,0.13294434060855817,0.8609920618485429
563,271.101968,0.41966360807419,1.48469066619873,-0.45302617549896,0.539394446781703,0.13146413832294693,0.8577178449046856
564,271.110301,0.39548379182816,1.57434046268463,-0.43299582600594,0.5394859216651142,0.13035686648621836,0.8590143554064693
565,271.118634,0.48787432909012,1.54767608642578,-0.51872664690018,0.5407642831607745,0.12882986847235203,0.857531294530752
566,271.126967,0.50034844875336,1.64639317989349,-0.50904446840286,0.5422064722800745,0.13105959308390713,0.8609182007458744
567,271.1353,0.30580833554268,1.44001948833466,-0.43289336562157,0.544400701717454,0.1331399533213398,0.8608351921548651
568,271.14363299999997,0.48044618964195,1.42467653751373,-0.49139624834061,0.5412359140357194,0.13010802317638775,0.8599767879563938
569,271.151966,0.43526268005371,1.3233722448349,-0.56032419204712,0.5413322546044174,0.13192834902782855,0.8575010299682612
570,271.160299,0.45291087031364,1.43320608139038,-0.53952538967133,0.5412169378630969,0.12981388033652755,0.8600089014792929
571,271.168632,0.43311113119125,1.44293963909149,-0.69216078519821,0.5407162588469837,0.1336304387267755,0.8597870262301693
572,271.176965,0.30432271957397,1.34373557567596,-0.6530476808548,0.5390944286268582,0.13455300914997959,0.8592192007570847
573,271.185298,0.34633004665375,1.30247092247009,-0.53673338890076,0.5380061207985387,0.1303101924000959,0.8643443243844173
574,271.193631,0.26065045595169,1.21648406982422,-0.65878522396088,0.5427358101825326,0.12963140497402242,0.8538910807395469
575,271.201964,0.34013143181801,1.2310585975647,-0.4463152885437,0.5422089051227184,0.12838330804085205,0.8565501777493223
576,271.21029699999997,0.22307439148426,1.19158697128296,-0.36516934633255,0.539212664779352,0.1303693226405551,0.8542063771461947
577,271.21862999999996,0.16892585158348,1.06231188774109,-0.4305112361908,0.5380747269610969,0.131490413023501,0.8551792222626357
578,271.226963,-0.02952040731907,1.20331835746765,-0.49298438429832,0.5411913930153357,0.13251882426592754,0.855947124714754
579,271.235296,0.0907768458128,1.24286663532257,-0.50312751531601,0.5402403461689846,0.13337570793774695,0.8619176125039857
580,271.243629,0.50019478797913,1.10478031635284,-0.38965654373169,0.540063089253951,0.13411434329285918,0.8579704712848275
581,271.251962,0.08447574079037,1.05757331848145,-0.362249314785,0.5402410760217786,0.13094885008675713,0.8617935375291468
582,271.260295,0.23923695087433,0.87696731090546,-0.49846583604813,0.541430006221849,0.13476538414857855,0.8597708721550142
583,271.268628,0.21631219983101,1.07414567470551,-0.53250706195831,0.5423183343848408,0.13120066146461326,0.8599811670731519
584,271.276961,0.29809847474098,0.74717998504639,-0.54357242584229,0.5403557115671581,0.1271549292973112,0.8594439954173806
585,271.28529399999996,0.0958740785718,0.73772835731506,-0.39923626184464,0.5400899478367397,0.13071524853609082,0.8598358777104591
586,271.293627,-0.05697886645794,0.66639268398285,-0.32247039675713,0.5406972826743612,0.1287270930348612,0.8622189930507113
587,271.30196,0.01541977096349,0.78572952747345,-0.17631560564041,0.5385418327487245,0.12945403858106938,0.8626830821134602
588,271.310293,-0.04727107658982,0.95644837617874,-0.03264534473419,0.5416154374881662,0.1303014463307908,0.8618613651820591
589,271.318626,-0.09260825812817,0.81413561105728,0.15230223536491,0.5408381442634428,0.1314108590690459,0.8619650042786887
590,271.326959,0.1111401617527,0.82607179880142,0.24866299331188,0.5409447027712448,0.13138823363245714,0.8654991461306203
591,271.335292,0.07589497417212,0.71472680568695,0.25931850075722,0.5386112660777816,0.13025254619364793,0.8638160082758692
592,271.343625,-0.09365844726562,0.83652251958847,0.1599096506834,0.5389426192458796,0.13521209055063674,0.8635043124763336
593,271.35195799999997,0.14536081254482,0.87151157855988,0.146334156394,0.5379806246076315,0.13107876388394082,0.8611730653412489
594,271.36029099999996,0.24656262993813,0.97834849357605,-0.04524754732847,0.5375259263174876,0.13360635358460102,0.8586791096901408
595,271.368624,-0.02800916880369,1.01264595985413,-0.06876141577959,0.5374705061620592,0.136069704075249,0.8569420600424009
596,271.376957,0.10335343331099,1.27534556388855,-0.20039296150208,0.5343990423241439,0.13347349604781836,0.8568367666127733
597,271.38529,0.26789927482605,1.55354166030884,-0.29667690396309,0.5345210250543092,0.13385523338707142,0.8613431696989101
598,271.393623,0.31879478693008,1.52277910709381,-0.49710828065872,0.5348932499788244,0.13385815279824387,0.8622861395076825
599,271.401956,0.25895988941193,1.64542007446289,-0.47082805633545,0.5369542569530255,0.13306544751537042,0.8594148013056541
600,271.410289,0.20404298603535,1.74598145484924,-0.62774080038071,0.5361599338297938,0.1327242656629908,0.8601050474205795
601,271.41862199999997,0.26743820309639,1.86116874217987,-0.54162579774857,0.5373939202756296,0.13184992634520204,0.8602522830573878
602,271.42695499999996,0.29205349087715,1.93895900249481,-0.38158801198006,0.5369965397581764,0.13197555833933267,0.8636400650958621
603,271.435288,0.15560646355152,1.99510550498962,-0.49908053874969,0.5369408763184836,0.13680539569076222,0.8597691205083112
604,271.443621,0.36992076039314,2.07599520683289,-0.58496505022049,0.5384926406704653,0.13447329706075203,0.859638038946658
605,271.451954,0.36945971846581,2.05376219749451,-0.54144650697708,0.5385259219578337,0.13459782211147958,0.859476400881398
606,271.460287,0.41238921880722,2.15737175941467,-0.6394721865654,0.537806870986004,0.13557847665280714,0.8616086414882113
607,271.46862,0.31508067250252,2.11229062080383,-0.61972361803055,0.536778848998401,0.13374015993001528,0.8632132471824183
608,271.476953,0.36487478017807,2.2043993473053,-0.64766871929169,0.5371229989188061,0.13517959993712755,0.8561910901750837
609,271.485286,0.40834218263626,2.14412927627563,-0.71616131067276,0.5363410832930581,0.13486024068326324,0.8562824677447887
610,271.49361899999997,0.43095949292183,2.13582992553711,-0.78882873058319,0.5385711728310102,0.13409816488927756,0.8596350222217795
611,271.50195199999996,0.53146976232529,2.13160395622253,-0.82397156953812,0.5394236408934305,0.13075619327778673,0.8599942071097233
612,271.510285,0.60423982143402,2.16900062561035,-0.88229519128799,0.5379326002938407,0.1317185650066449,0.8596451428471775
613,271.518618,0.33936300873756,2.05627226829529,-0.71078222990036,0.5408077823872469,0.1333703191912908,0.8621458131439836
614,271.526951,0.53239190578461,2.21011161804199,-0.69618213176727,0.5403316264249837,0.13305467002245816,0.8601209095546173
615,271.535284,0.47263383865356,2.05027842521667,-0.62500011920929,0.5382371921928562,0.1343153325878847,0.8606393969788846
616,271.543617,0.57304173707962,2.13787937164307,-0.64497923851013,0.5408889420178469,0.13476616265822447,0.8605870422051877
617,271.55195,0.50521522760391,2.24023389816284,-0.58271110057831,0.539308129524698,0.13003215497853773,0.8613321732501592
618,271.56028299999997,0.45690667629242,2.22017788887024,-0.54231733083725,0.5392911482830438,0.13492235115596224,0.8623925033880734
619,271.56861599999996,0.58305674791336,2.28877258300781,-0.58714228868484,0.5359023444506592,0.13653284432936735,0.8614375639934928
620,271.576949,0.65062719583511,2.26287651062012,-0.66649514436722,0.5361172131129673,0.13886007727408878,0.859466280255999
621,271.585282,0.77992779016495,2.61422729492188,-0.81029349565506,0.5379272480400245,0.13662452600440203,0.8622757269411672
622,271.593615,0.65541708469391,2.74078726768494,-1.03024303913116,0.538778159083152,0.13580962103240304,0.8575309052759285
623,271.601948,0.8416069149971,2.59153294563293,-1.05137479305267,0.5390830429232847,0.13375497594171631,0.8552974584151285
624,271.610281,0.51981526613235,2.393714427948,-1.05936646461487,0.5414084512360244,0.1315280247707755,0.8606390077240612
625,271.618614,0.64253306388855,2.29576516151428,-0.82819777727127,0.5418902027363683,0.13183332219415814,0.8585213641731102
626,271.626947,0.38992553949356,2.24279522895813,-0.73555123806,0.5402561596461704,0.13294077649408467,0.8594046806802551
627,271.63527999999997,0.38867038488388,2.27665734291077,-0.57774192094803,0.5410273707642846,0.13229316594649285,0.8625863522899397
628,271.64361299999996,0.37514609098434,2.18682813644409,-0.48722121119499,0.5403663187610857,0.13461016878789794,0.858576930299097
629,271.651946,0.22327926754951,2.23326659202576,-0.39539414644241,0.5404055848413581,0.13492463802804794,0.8590593143385284
630,271.660279,0.30970171093941,2.07740426063538,-0.36358126997948,0.539925244389748,0.1360616270376714,0.857233709218551
631,271.668612,0.40288630127907,2.03703618049622,-0.44772401452065,0.5388586375178122,0.13467853166619081,0.8575128049266582
632,271.676945,0.32811838388443,1.97256529331207,-0.42643862962723,0.539346179183649,0.13675749301910406,0.8568049450309907
633,271.685278,0.35660138726234,2.03204154968262,-0.48837384581566,0.5380124461894132,0.13626082819335306,0.8597043095802775
634,271.693611,0.29195109009743,2.05219960212708,-0.51629328727722,0.5403524515580153,0.1349906775416163,0.8632871082850866
635,271.70194399999997,0.29794478416443,2.20427131652832,-0.57010877132416,0.5384391181322989,0.13602371118506631,0.8605482140365908
636,271.71027699999996,0.21354588866234,2.37711620330811,-0.54469954967499,0.5368218616563449,0.13449564272043674,0.8600039384802989
637,271.71861,0.28201273083687,2.26057147979736,-0.58055949211121,0.5403797967093327,0.13529997699114693,0.862277186646753
638,271.726943,0.30114656686783,2.39881157875061,-0.53893637657166,0.5380402779092592,0.13584906957587448,0.8612471210713285
639,271.735276,0.40672844648361,2.60638904571533,-0.56106698513031,0.5399724901938928,0.13531907480590202,0.860709949415557
640,271.743609,0.31730917096138,2.43105983734131,-0.47600218653679,0.5426156277559244,0.1371252050205153,0.8612549061677897
641,271.751942,-0.09488794207573,2.39996433258057,-0.47090494632721,0.5389943901373417,0.13525647776467448,0.8577239756681478
642,271.760275,0.20834617316723,2.43713045120239,-0.46416833996773,0.5398780958993091,0.13491725435062346,0.8603960154007888
643,271.768608,0.29141315817833,2.61724972724915,-0.4025405049324,0.5379983357020786,0.13468733855656223,0.8594540187290735
644,271.77694099999997,0.00033298504422,2.66089630126953,-0.44613593816757,0.5397402996919591,0.13762100618712755,0.8578495103485734
645,271.785274,-0.0668403506279,2.59445309638977,-0.41352903842926,0.5409244615204479,0.13373225319142243,0.861830905992157
646,271.793607,0.07625357061625,2.61899137496948,-0.38863196969032,0.5420041084289551,0.13515581890028366,0.8600258340640938
647,271.80194,0.05097232758999,2.68779134750366,-0.41593676805496,0.5408498219081336,0.13365423192783263,0.8618557209871255
648,271.810273,-0.04519632086158,2.68748426437378,-0.41373392939568,0.5406670181118713,0.13510549555019488,0.8589127598976601
649,271.818606,-0.0321586728096,2.54091930389404,-0.34995448589325,0.5399416904060204,0.13692674588183978,0.8564073212292734
650,271.826939,-0.00208756024949,2.57365417480469,-0.40279665589333,0.5416003052069214,0.13549608843667144,0.8580621407956489
651,271.835272,0.10056149214506,2.39517450332642,-0.45261636376381,0.5414211506746255,0.13504839673334285,0.858335300367706
652,271.84360499999997,0.17709681391716,2.36661458015442,-0.56332105398178,0.54047054173995,0.13746733568152653,0.8597677581164305
653,271.85193799999996,0.14390076696873,2.30862355232239,-0.43320071697235,0.5407523135749662,0.13622719414380102,0.8557103604686499
654,271.860271,0.21959082782269,2.42304277420044,-0.44928649067879,0.5416372357582561,0.13490585648283673,0.8561248195414641
655,271.868604,0.1620868742466,2.42721796035767,-0.48463416099548,0.5406036182325714,0.1340102784487663,0.856691087995257
656,271.876937,0.22993898391724,2.31338787078857,-0.45881497859955,0.5423351209990837,0.1361546467761602,0.8588722773960663
657,271.88527,0.23506180942059,2.30583167076111,-0.44029587507248,0.5415489235702826,0.13569859825834896,0.8590128957008827
658,271.893603,0.24446226656437,2.29960775375366,-0.61518996953964,0.5421320272951714,0.1357848425300755,0.8580478356809029
659,271.901936,0.19164571166039,2.41313004493713,-0.53476125001907,0.5422529882314254,0.13680144232146632,0.8559924729016367
660,271.91026899999997,0.39950522780418,2.38052296638489,-0.6194161772728,0.5418444166378101,0.1346469776971,0.8557554167144152
661,271.91860199999996,0.29612618684769,2.46169447898865,-0.50712341070175,0.5426029769741755,0.1373051258982449,0.8566358138103878
662,271.926935,0.23288464546204,2.33492994308472,-0.73616600036621,0.5428457260131836,0.1363370856460255,0.8590252545415141
663,271.935268,0.37914189696312,2.29589343070984,-0.68475812673569,0.5418657769962234,0.13691162576480817,0.8586850458261918
664,271.943601,0.42747601866722,2.42565536499023,-0.68211990594864,0.5424533084947234,0.1376160675165602,0.8579877931244521
665,271.951934,0.43408444523811,2.36574339866638,-0.78298878669739,0.5408649055325254,0.1378142225499051,0.8582754524386662
666,271.960267,0.51763808727264,2.37345337867737,-0.77571421861649,0.5438900967033541,0.13908059013133162,0.8592760319612458
667,271.9686,0.59068989753723,2.30941796302795,-0.82512414455414,0.5445628263512439,0.13934366557062855,0.8585143575862958
668,271.976933,0.65485364198685,2.26372218132019,-0.82484245300293,0.5425260018329234,0.13726449742609184,0.8597136516960295
669,271.98526599999997,0.77408784627914,2.15698766708374,-0.83106672763824,0.5410103895226306,0.13462932742371836,0.8605159058862806
670,271.99359899999996,0.63441330194473,2.1601893901825,-0.85808962583542,0.5405116081237795,0.13729477415279487,0.8582049000019928
671,272.001932,0.65995073318481,2.1345751285553,-0.84307968616486,0.5436985346735744,0.1334459441048755,0.856072270140356
672,272.010265,0.78817570209503,2.18923592567444,-0.74820470809937,0.5432586280667051,0.13762738023485407,0.8589435110286785
673,272.018598,0.61220586299896,1.98929131031036,-0.79564219713211,0.5428585227654908,0.13798113988370306,0.8567292349679132
674,272.026931,0.7700919508934,2.05773234367371,-0.83065682649612,0.5447967684998806,0.13632870450311735,0.8558869848445969
675,272.035264,0.85792315006256,1.99052059650421,-0.76400858163834,0.5417981926275754,0.1368885502523306,0.8565542649249642
676,272.043597,0.76507163047791,1.91946697235107,-0.74682146310806,0.5424141397281571,0.1382167242011245,0.8570945506193203
677,272.05192999999997,0.81284207105637,1.78127777576447,-0.94643318653107,0.5437169269639622,0.13584805994617652,0.855585215043049
678,272.06026299999996,0.90080142021179,1.86913466453552,-0.79764008522034,0.5445103742638407,0.13772361132563365,0.8561115848774815
679,272.068596,0.78912329673767,1.79446911811829,-0.86377596855164,0.5423338559209081,0.13918388862999082,0.8591756042169061
680,272.076929,0.75095814466476,1.6937540769577,-0.79402840137482,0.5428228572923306,0.13624898024967755,0.8558917532161785
681,272.085262,0.95051860809326,1.76880371570587,-0.83337193727493,0.5435393781078102,0.1342217654598,0.8592972463491009
682,272.093595,0.86822021007538,1.63307416439056,-0.79648751020432,0.5432967263825081,0.13701035051929694,0.8592766158434805
683,272.101928,0.82295972108841,1.60538494586945,-0.72079735994339,0.5442398908186928,0.13763061591557144,0.8579893501437438
684,272.110261,0.83538269996643,1.63671123981476,-0.86559462547302,0.5442706419497122,0.1375813265236061,0.8605318653340244
685,272.118594,1.02231526374817,1.69334423542023,-0.9001482129097,0.5434809898843571,0.13378053295369083,0.8571878744631397
686,272.12692699999997,0.83463978767395,1.69357478618622,-0.85788476467133,0.5432107010666204,0.13880307577094284,0.8552755628313337
687,272.13525999999996,0.80841088294983,1.64921092987061,-0.66659766435623,0.5420409903234368,0.13451432695194185,0.8566911853089622
688,272.143593,0.84468060731888,1.59777748584747,-0.688805103302,0.5429656651555275,0.13591205587192448,0.858421520311005
689,272.151926,0.87431627511978,1.55338799953461,-0.76408541202545,0.5423720028935642,0.1390413118868459,0.8564816689004703
690,272.160259,0.83804655075073,1.66624438762665,-0.84202963113785,0.5420550521539184,0.13797936390857346,0.8579502300340305
691,272.168592,0.8859196305275,1.75825095176697,-0.7134205698967,0.5430739266531805,0.1372669302687357,0.8559831307858836
692,272.176925,0.96537488698959,1.60197818279266,-0.76910585165024,0.5426941599164693,0.13575809342520612,0.8572768191901999
693,272.185258,0.91821902990341,1.55054485797882,-0.71628928184509,0.5424498538581694,0.13617507049015612,0.8578244034124877
694,272.19359099999997,0.9587407708168,1.43894362449646,-0.77773779630661,0.5432387760707306,0.13600382269645203,0.8564815715867642
695,272.20192399999996,0.9571270942688,1.57869493961334,-0.77568864822388,0.544001666867003,0.13693318075063265,0.8571172247127612
696,272.210257,0.90441298484802,1.54595994949341,-0.6538417339325,0.5427980422973633,0.13648398068486428,0.8561350374805683
697,272.21859,1.02782249450684,1.62708044052124,-0.72453707456589,0.5434585590751806,0.1363528018095051,0.8563450404575897
698,272.226923,0.92964297533035,1.56509363651276,-0.77471536397934,0.5426157250696296,0.1364386689906214,0.8561291013445173
699,272.235256,0.92751705646515,1.44865143299103,-0.69449156522751,0.5420077090360683,0.13547019082672754,0.8587421689714704
700,272.243589,0.93007850646973,1.44998335838318,-0.72809743881226,0.5431238485842337,0.13664448747829488,0.8574390411376949
701,272.251922,1.04283237457275,1.50646269321442,-0.91456907987595,0.5426427782798297,0.13657481086497447,0.8559520877137479
702,272.260255,1.0192414522171,1.43102872371674,-0.89651101827621,0.5408835897640306,0.13720220449019488,0.8591532220645826
703,272.26858799999997,1.03673601150513,1.47867131233215,-0.8502516746521,0.5414962281986163,0.13575591603103979,0.8557850973946703
704,272.276921,0.99705982208252,1.50034117698669,-0.75407034158707,0.5419556948603418,0.13294437710119797,0.8569215268504866
705,272.285254,0.93033474683762,1.59593331813812,-0.82146137952805,0.5419338479333989,0.13878087608181733,0.8552200940190531
706,272.293587,0.85144287347794,1.35321283340454,-0.82486814260483,0.5400145783716316,0.13517446663914895,0.8615002340199999
707,272.30192,0.84619182348251,1.62067663669586,-0.65230488777161,0.5416389387481071,0.13533530186633674,0.8608754800290479
708,272.310253,0.95797234773636,1.58604621887207,-0.58360749483109,0.5432396518940826,0.1369014929751959,0.8574246387092438
709,272.318586,0.80280137062073,1.58609747886658,-0.72151464223862,0.542128426688058,0.13655157721772448,0.8583496054824519
710,272.326919,0.89035075902939,1.56519615650177,-0.69374871253967,0.5429796783291561,0.13490359393917753,0.8556631633213592
711,272.33525199999997,0.94291114807129,1.54583179950714,-0.80470955371857,0.5424373977038327,0.13469020931088163,0.8574042028310347
712,272.34358499999996,0.87721073627472,1.54163122177124,-0.67848265171051,0.5415406032484408,0.13485771052691428,0.8589933356460254
713,272.351918,0.92705595493317,1.58468854427338,-0.66470211744308,0.5412214629504142,0.1351318554002408,0.8565523186508489
714,272.360251,0.83919912576675,1.59273135662079,-0.67612606287003,0.5433967162151724,0.13483391732585714,0.8582491777381122
715,272.368584,0.87385523319244,1.62067663669586,-0.67699700593948,0.5413615946867031,0.13463413228793977,0.8578259604317806
716,272.376917,0.83609992265701,1.42101383209229,-0.73150420188904,0.5415179291549989,0.13582662660248468,0.8570009348343826
717,272.38525,0.9224454164505,1.51885998249054,-0.71805661916733,0.5422590703380347,0.13452353526134897,0.8571829114641458
718,272.393583,0.82782649993896,1.36212658882141,-0.6160352230072,0.5422890429594082,0.13504131716124895,0.8590369321862039
719,272.40191599999997,0.7684525847435,1.49982869625092,-0.75514602661133,0.5426371827417489,0.13608360777095918,0.8575320730403979
720,272.41024899999996,0.91932040452957,1.63732588291168,-0.64866763353348,0.5453025564855458,0.13572470265991834,0.8591395981457765
721,272.418582,0.8015718460083,1.49642205238342,-0.84241372346878,0.5441387332215601,0.1357686519622806,0.8601254832987877
722,272.426915,0.88123220205307,1.39258205890656,-0.63491290807724,0.5420207490726398,0.13624019768773266,0.8601262618084347
723,272.435248,0.95028805732727,1.46804141998291,-0.70409691333771,0.5417135783604213,0.13492935774277653,0.859856897470902
724,272.443581,0.9984684586525,1.64150094985962,-0.69777023792267,0.5419019290379111,0.13421969754355303,0.8560015230762713
725,272.451914,0.90689772367477,1.42903113365173,-0.67866200208664,0.5427063727865418,0.13505466130315,0.8587131694871549
726,272.460247,0.90546315908432,1.51225161552429,-0.62953382730484,0.5420130126330316,0.13490169632191532,0.8582639694213866
727,272.46858,0.84306693077087,1.44132578372955,-0.65658247470856,0.5417709934468173,0.13543489027996428,0.8615743870637856
728,272.47691299999997,0.88822484016418,1.59265470504761,-0.64080411195755,0.542673529410849,0.1351778361262112,0.8589820472561581
729,272.48524599999996,0.9926283955574,1.44836962223053,-0.5730288028717,0.5428909768863601,0.13404825512243773,0.8589511014977276
730,272.493579,0.86847621202469,1.47449624538422,-0.60968279838562,0.5421295457956744,0.13670184174362449,0.857326838434959
731,272.501912,0.87823522090912,1.36850452423096,-0.56910985708237,0.5422950764091643,0.1351623267543561,0.8594864241930908
732,272.510245,0.86120188236237,1.31807017326355,-0.63798660039902,0.5411049297877724,0.13683808093168265,0.8599944990508408
733,272.518578,0.98689085245132,1.40505599975586,-0.60540527105331,0.5398922550434969,0.13396042950299283,0.8584856500430978
734,272.526911,0.96557992696762,1.40177750587463,-0.61616331338882,0.5404044170768898,0.13540248481594794,0.8587898526872907
735,272.535244,0.93860793113708,1.28710234165192,-0.61695724725723,0.5407014671637091,0.1342009281625551,0.8593180714821327
736,272.54357699999997,0.93504756689072,1.36146068572998,-0.66352391242981,0.540655729722003,0.13596061541109694,0.862188436547104
737,272.55190999999996,1.05315494537354,1.36845350265503,-0.72476768493652,0.5417067177441652,0.13376476813335816,0.86055259315335
738,272.560243,1.00371932983398,1.35784900188446,-0.74397826194763,0.5426204447843591,0.13455314295632448,0.8592439184383469
739,272.568576,0.98271578550339,1.34811580181122,-0.59400695562363,0.5383356736630805,0.13593168891206123,0.857341922059351
740,272.576909,0.97805386781693,1.34327435493469,-0.62886786460876,0.53905540583085,0.13390208993639285,0.8593525205339704
741,272.585242,0.94060587882996,1.35623526573181,-0.68314445018768,0.5377853160001795,0.13581943755247142,0.8592762265886581
742,272.593575,1.0191136598587,1.43233525753021,-0.63142931461334,0.5406645852692276,0.13517680216808672,0.85603091181541
743,272.601908,0.97695261240005,1.5472663640976,-0.61926257610321,0.5428523920020275,0.13354867088551428,0.8602383671974653
744,272.610241,0.85820490121841,1.49352753162384,-0.65297085046768,0.5422861235482357,0.13589919829855204,0.8590551298491806
745,272.61857399999997,0.90536069869995,1.46291851997375,-0.64956420660019,0.5391304833548407,0.1330118519919255,0.8606249945504326
746,272.62690699999996,0.9624804854393,1.46307218074799,-0.68276023864746,0.5406419598326387,0.13597809538549285,0.8620250468351408
747,272.63524,0.92723524570465,1.51486420631409,-0.69651508331299,0.5399960887675388,0.13482604707990406,0.8591507892219387
748,272.643573,0.99795627593994,1.43937921524048,-0.733707010746,0.5399395008476409,0.13388411122925406,0.8542851039341519
749,272.651906,1.00763845443726,1.49590969085693,-0.56918674707413,0.5408251528837245,0.1350417064160714,0.8606718997566071
750,272.660239,0.93858242034912,1.65676712989807,-0.67832893133163,0.5411469693086581,0.13267845523600713,0.8595075412672398
751,272.668572,0.92290657758713,1.48925018310547,-0.58829498291016,0.5390709760237714,0.13596306041795406,0.8568022202472295
752,272.676905,0.87605804204941,1.48789250850677,-0.75655478239059,0.5408641756797326,0.13513450719872347,0.8570336322395172
753,272.68523799999997,0.97562062740326,1.45203256607056,-0.62871414422989,0.5400802164661642,0.13541253245606732,0.8591506919082326
754,272.69357099999996,1.0203173160553,1.56627202033997,-0.66769903898239,0.5395286910387939,0.1371467964989796,0.8593692584913601
755,272.701904,1.01286375522614,1.48072063922882,-0.74231332540512,0.5389578488408306,0.134131957073601,0.8568831852504183
756,272.710237,0.99396032094955,1.48010587692261,-0.71121770143509,0.53796150246445,0.13521889034582651,0.8606755003637193
757,272.71857,1.04723787307739,1.44514226913452,-0.71649414300919,0.5378562090348223,0.13614978109087245,0.860268534446249
758,272.726903,1.032381772995,1.43633103370667,-0.78660029172897,0.5401173903017632,0.13445857836275713,0.8580744996362806
759,272.735236,1.01565563678741,1.48387098312378,-0.86859148740768,0.5418030583128632,0.1355309632359714,0.8590179560135827
760,272.743569,0.99734157323837,1.4616379737854,-0.78690773248672,0.5393294898831112,0.13300485756932448,0.8609007815925438
761,272.751902,1.00827872753143,1.51481306552887,-0.77143669128418,0.5390372568247265,0.13350141291715611,0.8625781779386561
762,272.76023499999997,0.95415586233139,1.6799224615097,-0.76452088356018,0.5404549228901765,0.1326834790560663,0.8595523055718867
763,272.76856799999996,1.03353428840637,1.66949737071991,-0.72046434879303,0.5387573339501204,0.13239533317332347,0.8621440614972795
764,272.776901,0.96422219276428,1.74244666099548,-0.84185022115707,0.5388351849147255,0.1328762696713816,0.8615056835875213
765,272.785234,1.0209321975708,1.73174011707306,-0.71915817260742,0.5391905259112918,0.13311687780886325,0.8576525474081234
766,272.793567,0.84086406230927,1.68494272232056,-0.63140368461609,0.5414408080431877,0.13430427531806838,0.8616090307430346
767,272.8019,0.86355829238892,1.66767871379852,-0.67236083745956,0.5394234462660183,0.13390280762497242,0.8587492728719908
768,272.810233,0.90379840135574,1.83104634284973,-0.66813451051712,0.5415662940667602,0.13562259625415407,0.8599908984437286
769,272.818566,0.84455251693726,1.68207395076752,-0.7613959312439,0.5405104403593102,0.13643616316269896,0.8594030263472571
770,272.82689899999997,0.89516627788544,1.73371231555939,-0.7317858338356,0.5397747974006499,0.13627458591850408,0.8572965738724694
771,272.83523199999996,0.8824103474617,1.622239112854,-0.7277644276619,0.5395236793829469,0.13399192265101836,0.8570580579796612
772,272.843565,0.88763564825058,1.8047149181366,-0.73985433578491,0.5388984388234662,0.13319107950950201,0.8586823210424306
773,272.851898,0.80736058950424,1.8975921869278,-0.71357417106628,0.5400401232193928,0.13510320867810918,0.8587208572699102
774,272.860231,0.81079298257828,1.77705156803131,-0.86318689584732,0.5401645387922009,0.13383443258246633,0.8627513963349009
775,272.868564,0.91591387987137,1.63286924362183,-0.7889312505722,0.5394383352629989,0.1327487643884153,0.8593059072689132
776,272.876897,0.82085937261581,1.60830497741699,-0.78155428171158,0.5408818867741796,0.13561085778839693,0.8594863268793846
777,272.88523,0.91404402256012,1.66424655914307,-0.76813250780106,0.5384956087384908,0.13548538392903878,0.8599999486183632
778,272.893563,0.88684165477753,1.54501223564148,-0.7952835559845,0.5400620674600408,0.13469182715123978,0.8595561008064112
779,272.90189599999997,0.77490741014481,1.67187941074371,-0.81674826145172,0.5398269088900816,0.13443562449241123,0.8580484195631377
780,272.910229,1.02715635299683,1.62252068519592,-0.87222874164581,0.5398888490637959,0.13441568734694487,0.8617001163716212
781,272.918562,1.04982495307922,1.70827734470367,-0.81874620914459,0.5389653419961734,0.13332601712674488,0.8613704175365213
782,272.926895,0.92201000452042,1.65845775604248,-0.81375151872635,0.5407365487546336,0.13717543105689795,0.8570817052101601
783,272.935228,0.97070264816284,1.69316482543945,-0.86638861894608,0.5406604494367325,0.13192793544457856,0.8606454304286407
784,272.943561,1.02398025989532,1.76818907260895,-0.82335668802261,0.539948064453748,0.1337812871349102,0.859763962881906
785,272.951894,0.90523260831833,1.60984182357788,-0.84735727310181,0.5407216111008,0.13583480095376735,0.8572166793200438
786,272.960227,0.871242582798,1.67838537693024,-0.95765221118927,0.5410906733298785,0.13212380360583875,0.8585302197203345
787,272.96855999999997,1.21511375904083,1.78583741188049,-0.87407302856445,0.5399993487766805,0.13386130332946733,0.8586085572534674
788,272.97689299999996,1.0200868844986,1.61312031745911,-0.92051154375076,0.5413728344197173,0.13483560815149387,0.8583666353809591
789,272.985226,1.10574090480804,1.63745415210724,-0.93439453840256,0.5399134207744989,0.13196770025759286,0.8600835410916071
790,272.993559,1.07428658008575,1.62180364131927,-0.9231241941452,0.5396822034096235,0.1335593267362949,0.8616450368141643
791,273.001892,1.05141305923462,1.5730596780777,-0.90614199638367,0.5399920502487489,0.13358402008912956,0.8585459845406673
792,273.010225,1.10535669326782,1.77805042266846,-0.86938554048538,0.5421341681966979,0.13078505895575712,0.860475812639509
793,273.018558,0.99703407287598,1.6120445728302,-0.75314807891846,0.5410447899176152,0.13192141542629285,0.85816529332375
794,273.026891,0.97587686777115,1.70645868778229,-0.83869969844818,0.5403217004269969,0.13188633383536835,0.8574248333366551
795,273.03522399999997,1.05827760696411,1.65753543376923,-0.8705125451088,0.5406060997320683,0.1317431610457755,0.8607637638948398
796,273.04355699999996,1.03051197528839,1.65061974525452,-0.79976612329483,0.5407323642652857,0.13184870992388062,0.8586629556149857
797,273.05189,0.96632260084152,1.66580891609192,-0.8846772313118,0.5406373860884683,0.1337766404054602,0.8599867139543805
798,273.060223,1.02149569988251,1.51071488857269,-0.85788482427597,0.5398351318982183,0.1339868866667459,0.861153602600098
799,273.068556,1.0064857006073,1.64203882217407,-0.88211578130722,0.5399068034425071,0.13514018788629692,0.8569084868139153
800,273.076889,0.99145019054413,1.59280836582184,-0.87138342857361,0.5394093844355367,0.13089964584428468,0.8589537289677835
801,273.085222,1.16557598114014,1.67787349224091,-0.78662604093552,0.5405908214802643,0.13234496116638161,0.8596519548065806
802,273.093555,1.07974255084991,1.65256643295288,-0.89172124862671,0.5387281398383938,0.13307533702071836,0.8593058099552081
803,273.101888,0.88069432973862,1.62582516670227,-0.80532437562943,0.5384868991618255,0.1342922692396204,0.8584458487374438
804,273.11022099999997,1.14229238033295,1.65909802913666,-0.83828985691071,0.5384652955191479,0.13240244923805713,0.8623852048601417
805,273.11855399999996,0.9280549287796,1.59357678890228,-0.77773779630661,0.5407149937688092,0.13362419848539386,0.8578445473495796
806,273.126887,0.96242928504944,1.64447212219238,-0.76738965511322,0.5400461080122969,0.1310674998225,0.8611071839624519
807,273.13522,1.01829397678375,1.58174300193787,-0.827019572258,0.5397948440240358,0.13083208580406325,0.8614062289802397
808,273.143553,0.94452488422394,1.64175713062286,-0.78549891710281,0.5380703965011908,0.1306895212251316,0.8630259182988377
809,273.151886,0.90116000175476,1.61598920822144,-0.7896483540535,0.5394641720518776,0.13133064824707652,0.8620280635600183
810,273.160219,0.95095402002335,1.55325996875763,-0.70755475759506,0.5400684901646204,0.13191180569785,0.8612417688175121
811,273.168552,0.9803079366684,1.4684511423111,-0.76575040817261,0.540582987726951,0.1326996331312214,0.8580765432241009
812,273.17688499999997,0.97065144777298,1.64334535598755,-0.7929013967514,0.5406547079280928,0.13195672813726936,0.8603594254474254
813,273.18521799999996,1.06283700466156,1.41250956058502,-0.78229707479477,0.5381430898393907,0.13099968433380102,0.8583175892732581
814,273.193551,0.86358386278152,1.48292338848114,-0.7948225736618,0.5403679244372306,0.13271881609546937,0.8598098949510223
815,273.201884,0.99413973093033,1.53620100021362,-0.83647131919861,0.5374877793448316,0.13257723681780711,0.8600692359768612
816,273.210217,1.02702844142914,1.61885821819305,-0.80880790948868,0.5393684153654132,0.1345756832434204,0.8585292465832765
817,273.21855,1.02917993068695,1.71503949165344,-0.87929821014404,0.5401032798144285,0.13119332644404183,0.8606358936854774
818,273.226883,0.92559587955475,1.7110435962677,-0.92519897222519,0.5386743253591112,0.12947264982729592,0.8590345966572662
819,273.235216,1.05417943000793,1.63522553443909,-0.89566576480865,0.5410839586841816,0.1321295329502653,0.8605503549381173
820,273.243549,0.95138943195343,1.6729040145874,-0.72817426919937,0.5381092246697877,0.13168982097080814,0.8628287607309766
821,273.25188199999997,0.89790689945221,1.70891761779785,-0.86226463317871,0.5390583738988755,0.13192893291006325,0.858272727654905
822,273.26021499999996,0.91901308298111,1.60725474357605,-0.85017484426498,0.5393238943450306,0.12924768486801427,0.8582525837178132
823,273.268548,1.18768084049225,1.56593906879425,-0.82812094688416,0.5383836979768714,0.12893244928243164,0.8636204077273
824,273.276881,0.99531799554825,1.48353803157806,-0.90089106559753,0.5395513651322347,0.1318681483366051,0.8617761183758172
825,273.285214,1.05889248847961,1.69915866851807,-0.85299241542816,0.5387515924414806,0.13149321079254184,0.8579420556827468
826,273.293547,1.121058344841,1.62057423591614,-0.84697318077087,0.539577104607407,0.13189753707574386,0.8582449932487642
827,273.30188,1.09370219707489,1.58135879039764,-0.89087587594986,0.5376957387340316,0.13221415938163264,0.8594014693279654
828,273.310213,1.01534819602966,1.59452438354492,-0.84425795078278,0.538368176440803,0.13208551066262347,0.8581888432405429
829,273.31854599999997,1.05702257156372,1.55697405338287,-0.71101272106171,0.5405797763746611,0.1312804708675459,0.8613165057435325
830,273.32687899999996,0.97984689474106,1.50174975395203,-0.93196105957031,0.5395316591068193,0.13188408345592245,0.8574750472088245
831,273.335212,1.02894949913025,1.55228662490845,-0.87502068281174,0.5388508037644989,0.13077015779456327,0.8596060227374642
832,273.343545,1.12589931488037,1.63140892982483,-0.81672257184982,0.5382558764243612,0.1315799416327959,0.8625648459609674
833,273.351878,1.09137141704559,1.51873195171356,-0.8918491601944,0.540645560439752,0.13180371449918163,0.859583056702906
834,273.360211,1.06860017776489,1.43128490447998,-0.87345820665359,0.5417678307513806,0.13005940281614997,0.8591488429478235
835,273.368544,1.17889511585236,1.24880921840668,-0.81364887952805,0.5398865621917102,0.1300140667934806,0.8588644922996049
836,273.376877,1.19741427898407,1.24865555763245,-0.92250949144363,0.5400971003941122,0.13210625064616324,0.860391149715501
837,273.38521,1.01291489601135,1.22355353832245,-0.86795109510422,0.5384601378927428,0.13237206303343468,0.8640154040589622
838,273.39354299999997,1.16772723197937,1.29517090320587,-0.96492666006088,0.5394124498172683,0.1282291388025092,0.8581589679328764
839,273.401876,1.12782037258148,1.31381809711456,-0.84748536348343,0.5382355378598581,0.12995014385301223,0.8591384303813081
840,273.410209,1.04275548458099,1.43635666370392,-0.98088431358337,0.5366738475098898,0.13283892553679794,0.8606780305200693
841,273.418542,0.96555417776108,1.6092015504837,-0.8139563202858,0.5406908599697816,0.12921486582074795,0.8616920393340437
842,273.426875,1.04792952537537,1.64995360374451,-0.84466779232025,0.5386014373935,0.1305970245478102,0.8606088404752764
843,273.435208,0.93007850646973,1.71606397628784,-0.89615243673325,0.5396976276319857,0.13073389627495613,0.8622906159381478
844,273.443541,0.85451644659042,1.56002199649811,-0.73795890808105,0.5410448872313204,0.13109412728523673,0.8617644407311266
845,273.451874,0.9697293639183,1.59439659118652,-0.84366893768311,0.5390983211750887,0.12936747803979998,0.8605956058112938
846,273.46020699999997,0.96878153085709,1.56063675880432,-0.76062750816345,0.5388329466994929,0.1309538860710296,0.8637274528036315
847,273.46853999999996,0.85559225082397,1.56786000728607,-0.73747223615646,0.5389293845818969,0.1290947563794194,0.8588452241858653
848,273.476873,0.94204038381577,1.62295651435852,-0.71680164337158,0.5389978934307489,0.13062061095724284,0.8617711553768234
849,273.485206,0.87490540742874,1.64711034297943,-0.80066251754761,0.5374291964939663,0.13105416784481122,0.8642322189953867
850,273.493539,0.80800104141235,1.54585754871368,-0.71639174222946,0.5368173852258796,0.12845021121355918,0.8591216924239172
851,273.501872,0.97638899087906,1.51932108402252,-0.80903840065002,0.5376896566274213,0.1294045788901194,0.8600133779097571
852,273.510205,0.87295871973038,1.65789413452148,-0.76254856586456,0.5375809572180918,0.13009863240378267,0.8651044417400745
853,273.518538,0.75966703891754,1.49424493312836,-0.71352303028107,0.5372083916956061,0.1290622292732704,0.8635085942793866
854,273.52687099999997,0.83174538612366,1.67692542076111,-0.77896726131439,0.5371323896914112,0.13150670090500205,0.8586383352474285
855,273.53520399999996,0.98046171665192,1.49957275390625,-0.6392160654068,0.5400616295483642,0.1283361838788398,0.8610701074405591
856,273.543537,0.87106335163116,1.60861253738403,-0.82947862148285,0.5372526694317254,0.13330038712949183,0.859183194685955
857,273.55187,0.8756992816925,1.85504698753357,-0.83588206768036,0.5383162109219296,0.12935291747657654,0.8589292059139325
858,273.560203,0.94470417499542,1.68542945384979,-0.7619337439537,0.5404121535164969,0.13077459773238773,0.8632777661693337
859,273.568536,0.90789651870728,1.572598695755,-0.76972055435181,0.5394175587868204,0.12900716188002653,0.8649206161499019
860,273.576869,0.81243240833282,1.62889897823334,-0.67502474784851,0.5387482837754857,0.12775391948466427,0.8605284593543223
861,273.585202,0.86112499237061,1.54680526256561,-0.68237602710724,0.5398806747125122,0.12940302187082753,0.859528074459154
862,273.593535,0.82298535108566,1.63537919521332,-0.6341187953949,0.5389152740945622,0.1302493591697847,0.8631497986462653
863,273.60186799999997,0.81005024909973,1.68197166919708,-0.57943242788315,0.5383511465422959,0.1272780797919449,0.8604726012872193
864,273.61020099999996,0.75318652391434,1.56501686573029,-0.46734443306923,0.5375521523611888,0.13153689248221223,0.8622344659299264
865,273.618534,0.75848859548569,1.55968904495239,-0.58765453100204,0.5385933116990693,0.12901891250999592,0.8597439162585203
866,273.626867,1.00205445289612,1.68284237384796,-0.54201000928879,0.5394080220436561,0.12874958466510408,0.8618760595516286
867,273.6352,0.92026823759079,1.74964427947998,-0.683733522892,0.5379364928420703,0.1311972068280592,0.8597335036920041
868,273.643533,0.67583161592484,1.6519261598587,-0.66252499818802,0.5366504922205091,0.12932295701941632,0.8648139603283939
869,273.651866,0.95162004232407,1.58302366733551,-0.64385223388672,0.5366021273087479,0.12595051405381222,0.8623642824134051
870,273.660199,0.76156240701675,1.67720723152161,-0.74748736619949,0.5411882789767519,0.13333819350417753,0.8585873428656131
871,273.66853199999997,0.78756082057953,1.65223336219788,-0.760089635849,0.5383037547675928,0.12982300349644285,0.861650778322804
872,273.67686499999996,0.90666717290878,1.72152006626129,-0.72878903150558,0.5386153045965704,0.13014320208101834,0.862812314714704
873,273.685198,0.72951906919479,1.70594656467438,-0.71278011798859,0.5393597057887489,0.13161516919427957,0.8624999377192284
874,273.693531,0.75702863931656,1.75264120101929,-0.75120145082474,0.5382081927085408,0.12794707502637548,0.8590019965658376
875,273.701864,0.75869363546371,1.77894699573517,-0.70686322450638,0.5379626215720663,0.1322692754317306,0.8613099857252469
876,273.710197,0.73728013038635,1.82144093513489,-0.8806813955307,0.5394139095228541,0.13081431388855,0.8602896515203979
877,273.71853,0.6716051697731,1.88007187843323,-0.78759920597076,0.5399379924852019,0.12914139397290306,0.8612246416052989
878,273.726863,0.90000742673874,1.7756941318512,-0.81531399488449,0.5391730581011092,0.131109782627651,0.8623328500864458
879,273.735196,0.81778568029404,1.76283574104309,-0.71639174222946,0.53753629022715,0.12937465492559896,0.8628873435818418
880,273.74352899999997,0.69773179292679,1.73166334629059,-0.72371739149094,0.5393862237735673,0.13070358305561325,0.8632818533449754
881,273.75186199999996,0.7975760102272,1.74928569793701,-0.73237496614456,0.5364286656282388,0.13132823973285918,0.8608013269852621
882,273.760195,0.85897332429886,1.68174088001251,-0.7370879650116,0.5398132363144235,0.12818228225318776,0.8609848606343173
883,273.768528,0.77662354707718,1.77323496341705,-0.79090350866318,0.5387876958263164,0.13115418200590204,0.8621128237977316
884,273.776861,0.74481081962585,1.86060547828674,-0.79149276018143,0.5377108223584234,0.12817882761663366,0.8624916660542387
885,273.785194,0.79539877176285,1.85225486755371,-0.83104103803635,0.5367648358247714,0.13061411526738367,0.8613297404075153
886,273.793527,0.9018771648407,1.81688153743744,-0.76336818933487,0.5389389213250612,0.12806607752430205,0.8576694799929245
887,273.80186,0.75997442007065,1.69800615310669,-0.91426181793213,0.5387295508871276,0.13171012304267143,0.8621990437410315
888,273.81019299999997,0.81632560491562,1.83437621593475,-0.87391924858093,0.5394557057594765,0.12606118406568265,0.8610922949654713
889,273.81852599999996,0.71307462453842,1.79677450656891,-0.96041852235794,0.5370289938790459,0.12627449570869897,0.8621704335115397
890,273.826859,0.87157553434372,1.99700093269348,-0.81423807144165,0.5357152101944908,0.13095830168042857,0.8596904910340603
891,273.835192,0.70400726795197,2.09241390228271,-0.90140336751938,0.5371276699766816,0.12956014701298263,0.8605994010458183
892,273.843525,0.69324922561646,2.01487946510315,-0.88718742132187,0.5394348806264448,0.12945737157549184,0.8625322458695388
893,273.851858,0.79439985752106,1.9866783618927,-0.72387105226517,0.5389936116276959,0.1277882347301561,0.8621835708618163
894,273.860191,0.81299585103989,2.08204030990601,-0.80127733945847,0.5381337477236378,0.1282842913452459,0.8609678307358101
895,273.868524,0.66297316551208,2.17745327949524,-0.79392600059509,0.5382933908579296,0.1300550723562439,0.8624197512256857
896,273.876857,0.72186028957367,2.08270621299744,-0.7875480055809,0.5381502910536163,0.12711140574241123,0.8675387440895551
897,273.88518999999997,0.7391756772995,2.11449360847473,-0.7905450463295,0.5376838178050765,0.1295798773668255,0.860796072045151
898,273.89352299999996,0.56868731975555,2.21766757965088,-0.69764214754105,0.5378101309951469,0.12882294703503058,0.8587113205267458
899,273.901856,0.59553092718124,2.23575115203857,-0.79074990749359,0.539951567747155,0.12807439784614386,0.8609547906992387
900,273.910189,0.56773948669434,2.19973754882812,-0.71864575147629,0.5386058165102591,0.1273836165058367,0.8617701822397663
901,273.918522,0.55495798587799,2.31413078308105,-0.68831849098206,0.537240456561653,0.12870618275233672,0.8628961991290652
902,273.926855,0.37760508060455,2.47035217285156,-0.66816014051437,0.5365061273380204,0.1282509249083847,0.8615460687754102
903,273.935188,0.57040339708328,2.38684964179993,-0.66319096088409,0.5400172544985398,0.12757031285032958,0.8629630536449193
904,273.943521,0.44512414932251,2.50488018989563,-0.64695155620575,0.537227757123052,0.1295844511109959,0.8554079094711611
905,273.95185399999997,0.46546187996864,2.4937379360199,-0.56613862514496,0.5379101694846642,0.12729169154653774,0.8609982899257113
906,273.96018699999996,0.49448281526566,2.40311455726624,-0.52618038654327,0.5391033814877877,0.1288561431729061,0.8592601698272082
907,273.96852,0.45908397436142,2.49852776527405,-0.56488353013992,0.5405523825664909,0.12684476618864082,0.8571878744631397
908,273.976853,0.25501531362534,2.54901337623596,-0.6519975066185,0.54041643531955,0.1284833343661561,0.8618117351921235
909,273.985186,0.40296313166618,2.51297402381897,-0.53601628541946,0.5396180736775296,0.12864766072253775,0.8613239988988756
910,273.993519,0.36559194326401,2.54307079315186,-0.6503838300705,0.5396874096928805,0.1300384560409857,0.8641255631738776
911,274.001852,0.31823128461838,2.55577564239502,-0.62248992919922,0.5382501835725744,0.1294177892256755,0.8599230707908163
912,274.010185,0.18652285635471,2.57818818092346,-0.55807018280029,0.5393838882446285,0.12929635388510613,0.8590900654695469
913,274.018518,0.29389774799347,2.57160520553589,-0.46288764476776,0.5400194927137724,0.12932792001841018,0.8594850618012102
914,274.02685099999997,0.24062015116215,2.56445860862732,-0.56352597475052,0.54105890040495,0.12870569618380814,0.8580800465175081
915,274.035184,0.33595630526543,2.68640828132629,-0.59569746255875,0.5402724110350315,0.12699821773840408,0.8628533810985326
916,274.043517,0.19579523801804,2.6176598072052,-0.50007957220078,0.5379171760714785,0.1283917621690398,0.8601828010714785
917,274.05185,0.27338072657585,2.57818818092346,-0.62179839611053,0.5400769564570215,0.13167210987636022,0.8578285879018357
918,274.060183,0.220922768116,2.56251192092896,-0.56736809015274,0.541817266113904,0.1285225152969357,0.8609117780412947
919,274.068516,0.24482087790966,2.64565587043762,-0.5001819729805,0.5406182639452878,0.1289278390456214,0.8603567979773694
920,274.076849,0.26933369040489,2.69829320907593,-0.46524414420128,0.53951696473725,0.1290746975918204,0.8570255552019388
921,274.085182,0.23324325680733,2.55052471160889,-0.49359914660454,0.5394369728711184,0.12935002239382956,0.8598060024027917
922,274.09351499999997,0.22745442390442,2.54757905006409,-0.4500293135643,0.5409428538108356,0.13021999475907345,0.8609079828067703
923,274.10184799999996,0.26702839136124,2.4454038143158,-0.41314476728439,0.539868705126704,0.12910013296166223,0.8613174788805908
924,274.110181,0.31198140978813,2.43310904502869,-0.52410572767258,0.543778380569147,0.13075664335367654,0.8578058164946887
925,274.118514,0.29984024167061,2.49276471138,-0.46849718689919,0.539998813551299,0.12998978702389488,0.8610245646262653
926,274.126847,0.24364261329174,2.51504898071289,-0.48752850294113,0.5407470099780021,0.13138228533219284,0.8615427601094151
927,274.13518,0.16469952464104,2.4977593421936,-0.38307365775108,0.5394103575725949,0.13083758402843879,0.8567427615730131
928,274.143513,0.3005830347538,2.49637651443481,-0.431356549263,0.5410054751804897,0.1318805801625153,0.8603044432036734
929,274.151846,0.26234099268913,2.548424243927,-0.48197028040886,0.5411015238080704,0.13055825720027958,0.8579082878268489
930,274.16017899999997,0.16213811933994,2.6782374382019,-0.51678001880646,0.539686825810647,0.13294258896185407,0.8557741009459203
931,274.16851199999996,0.26149573922157,2.43469715118408,-0.46293890476227,0.5414557943538744,0.13038461305657245,0.8622203554425918
932,274.176845,0.21500590443611,2.42947173118591,-0.40694618225098,0.5412808729677786,0.12932838225851223,0.8591490375752345
933,274.185178,0.10988506674767,2.36310529708862,-0.33704489469528,0.5400145297147786,0.12960864573108877,0.857950521975148
934,274.193511,-0.03907451406121,2.42560410499573,-0.36642441153526,0.5403452016869367,0.12953991792639896,0.8584655061060071
935,274.201844,0.16580095887184,2.54458260536194,-0.39367800951004,0.5403900146484377,0.13102477910567345,0.8605767269523775
936,274.210177,0.22317685186863,2.6427104473114,-0.45986521244049,0.540830748421805,0.13350187515725917,0.8597102457163285
937,274.21851,-0.13346296548843,2.52362966537476,-0.39777624607086,0.5429360331321245,0.1323270676087357,0.8579491595832672
938,274.226843,0.21326410770416,2.40209007263184,-0.42349293828011,0.5435020583016531,0.12960386519529388,0.8604479809196632
939,274.23517599999997,0.1475123912096,2.33180475234985,-0.61078435182571,0.542682044360102,0.13465439786716427,0.8567837306431357
940,274.24350899999996,0.07894308120012,2.22673511505127,-0.5031276345253,0.539900769992751,0.13275272992192447,0.8613642867730591
941,274.251842,0.13263051211834,2.41136240959167,-0.52459233999252,0.5417338682680714,0.1299148676346755,0.8615712730252011
942,274.260175,0.24651136994362,2.36310529708862,-0.5028458237648,0.5434042580273684,0.13460032793940305,0.859211902229153
943,274.268508,0.20829497277737,2.44281697273254,-0.49295872449875,0.5417545960873968,0.1313626279636306,0.8610684531075612
944,274.276841,0.29005563259125,2.37199354171753,-0.55781406164169,0.542097918841304,0.13371406769265917,0.8588541770467949
945,274.285174,0.20191702246666,2.32053470611572,-0.59987258911133,0.5428945288366204,0.1303551148395153,0.8605726397767356
946,274.293507,0.2956650853157,2.27517151832581,-0.58391493558884,0.5427942957196918,0.13258944968787958,0.8610383831724826
947,274.30183999999997,0.29838022589684,2.32529878616333,-0.49779987335205,0.5429570042357152,0.13047256031814897,0.8611638205392019
948,274.31017299999996,0.3109056353569,2.26656532287598,-0.54259920120239,0.5425483353283939,0.1331289933652296,0.8591165347975122
949,274.318506,0.2772228717804,2.15647530555725,-0.59057468175888,0.5443451355914684,0.13207957452657243,0.8563028063092907
950,274.326839,0.2905935049057,2.31267094612122,-0.67218160629272,0.5437705954726857,0.132051949598351,0.857645346193898
951,274.335172,0.33977279067039,2.2110333442688,-0.5340695977211,0.5412965891312581,0.13280881910907957,0.8589641415342989
952,274.343505,0.19966295361519,2.12169122695923,-0.62100428342819,0.5427291928505408,0.13182259335809793,0.8579288210187642
953,274.351838,0.24553802609444,2.34279322624207,-0.6045086979866,0.5411510564843,0.13265525808139692,0.8591263634817938
954,274.360171,0.23524115979671,2.18962025642395,-0.59380203485489,0.541712361939099,0.13213095616321224,0.8554482946590499
955,274.368504,0.31628456711769,2.15890836715698,-0.56987828016281,0.5417511901076959,0.13289176687902346,0.8579943131427377
956,274.37683699999997,0.29794478416443,2.0483832359314,-0.65358567237854,0.5446732774072766,0.13172992638179185,0.8569695025074234
957,274.38516999999996,0.42396679520607,1.99728262424469,-0.54536551237106,0.5451442270862816,0.13224646753194386,0.8587362328354192
958,274.393503,0.38285592198372,2.21613073348999,-0.61173194646835,0.5426388857316,0.13282148205504082,0.8592883908018775
959,274.401836,0.45332074165344,1.98754918575287,-0.69584906101227,0.5417005383238499,0.13141111451752346,0.8579156836684867
960,274.410169,0.42332649230957,2.07217884063721,-0.70240634679794,0.5432741496027734,0.13557035095837652,0.8568210017924407
961,274.418502,0.42286539077759,2.03355240821838,-0.5938276052475,0.5437442234584264,0.1326308445054653,0.858702951548051
962,274.426835,0.48287954926491,2.13705945014954,-0.61424219608307,0.5445220032516795,0.1347185032708306,0.8590944445863061
963,274.435168,0.49333015084267,2.04674363136292,-0.60368901491165,0.5436365458430071,0.1341304243827357,0.8579723202452367
964,274.44350099999997,0.52834475040436,1.93793451786041,-0.54457134008408,0.542298336418307,0.13417056628635918,0.8568681016260266
965,274.45183399999996,0.49765899777412,2.02120661735535,-0.65609586238861,0.5428305937319388,0.13290759252042142,0.8585531857548927
966,274.460167,0.5401017665863,2.16641330718994,-0.74436247348785,0.5427901112303439,0.1328787025140255,0.8577813907545437
967,274.4685,0.5758336186409,2.09802341461182,-0.65640318393707,0.541866263564752,0.13376015789654797,0.8555410346206357
968,274.476833,0.509108543396,2.07325458526611,-0.6995375752449,0.5428731198213541,0.13289557427776122,0.8575553310160734
969,274.485166,0.58817964792252,1.99436271190643,-0.77038651704788,0.542049699900102,0.13320160155393673,0.8613011301780235
970,274.493499,0.64837312698364,2.07005286216736,-0.69331330060959,0.541977882385254,0.1342669190192704,0.8586374594240775
971,274.501832,0.58876883983612,2.03209280967712,-0.67610061168671,0.5442274346643561,0.13341993701701224,0.8580236045681704
972,274.510165,0.54883617162704,2.02266645431519,-0.71908122301102,0.5448421166867622,0.13141851035916122,0.855745879971251
973,274.51849799999997,0.58543902635574,1.99546432495117,-0.74236458539963,0.5421035143793846,0.13175174898030814,0.85445413784105
974,274.526831,0.62724143266678,1.91093730926514,-0.66050148010254,0.5438836739987745,0.13153312157611427,0.8589172363281244
975,274.535164,0.52529674768448,1.94715571403503,-0.60335606336594,0.5429138456072122,0.1317191367246663,0.858666556222098
976,274.543497,0.61909604072571,1.91795539855957,-0.69851297140121,0.5432388247275836,0.13167482249590814,0.8572246590439152
977,274.55183,0.6107714176178,1.92433345317841,-0.61944186687469,0.5437365843325245,0.13264191393949593,0.8577801256763693
978,274.560163,0.62962359189987,1.88645005226135,-0.64477437734604,0.5422527449471612,0.1325995581490653,0.858855928693499
979,274.568496,0.55859524011612,1.96398425102234,-0.6282787322998,0.5434128702903276,0.1341976073323459,0.8574040082036234
980,274.576829,0.66466385126114,1.93785786628723,-0.73880422115326,0.5433191085348327,0.13206635202680306,0.856774680468501
981,274.58516199999997,0.50524079799652,1.80655896663666,-0.54001206159592,0.5435102813097897,0.1319442841471459,0.8583288776631254
982,274.59349499999996,0.59632498025894,1.8831969499588,-0.62886786460876,0.5433268449744397,0.1321849652699061,0.856997918109504
983,274.601828,0.58382529020309,1.8697749376297,-0.59185534715652,0.5450332408048673,0.13294403650322753,0.858066422598703
984,274.610161,0.50449794530869,2.04315781593323,-0.59308475255966,0.5431798526218959,0.13284037307817143,0.854358673095703
985,274.618494,0.49563539028168,2.08209133148193,-0.6256148815155,0.5427191695388479,0.1325791222708561,0.8582563789523378
986,274.626827,0.51433378458023,1.96936321258545,-0.52218455076218,0.5412997518266949,0.1318998726046816,0.8573222646907888
987,274.63516,0.49842739105225,1.89938509464264,-0.71636611223221,0.5438844525084204,0.13402386587493265,0.8571543985483601
988,274.643493,0.45301333069801,2.09963703155518,-0.55194836854935,0.5449048840269755,0.13252636607812346,0.8571844684834388
989,274.65182599999997,0.44650733470917,2.02212858200073,-0.42689964175224,0.5451745889624775,0.13322957924434078,0.8554638648519713
990,274.66015899999996,0.52537357807159,2.07543182373047,-0.52195405960083,0.5441605314916489,0.1327124177193153,0.8545263446107204
991,274.668492,0.49274101853371,2.10619449615479,-0.49918299913406,0.543132558160899,0.1324954081554806,0.8583105826864439
992,274.676825,0.43759363889694,1.94833409786224,-0.53683596849442,0.5445188892130949,0.13099430775155815,0.8584960626096143
993,274.685158,0.27361130714417,2.12035918235779,-0.41470730304718,0.5430199175464867,0.1329520405555255,0.8587828461004764
994,274.693491,0.38539177179337,2.02958226203918,-0.45066964626312,0.5428681081655071,0.13408569657072755,0.8578172021982622
995,274.701824,0.43267568945885,2.11234211921692,-0.50092482566833,0.5428711248903857,0.13469496551825103,0.8538146894805285
996,274.710157,0.38600650429726,2.09676861763,-0.58926832675934,0.5433302022972888,0.13413423178147346,0.8576281216679785
997,274.71849,0.3514016866684,1.99313306808472,-0.44513696432114,0.5414495176198529,0.13254438127790202,0.8591287963244377
998,274.72682299999997,0.38846543431282,2.00214910507202,-0.44285729527473,0.544805575390251,0.1336435882412653,0.8563780298038408
999,274.73515599999996,0.33790296316147,1.99215984344482,-0.43522423505783,0.5443649389305898,0.13433244763588467,0.8567182385191622
1000,274.743489,0.33244717121124,2.02356314659119,-0.35377100110054,0.5429644973910581,0.13360069722545406,0.8545386061376458
1001,274.751822,0.33190929889679,1.85868406295776,-0.51152902841568,0.543164768997504,0.1352504321507041,0.8560394754215161
1002,274.760155,0.36305615305901,2.01139616966248,-0.4095843732357,0.5454145645608703,0.13359253503838364,0.8541680355461275
1003,274.768488,0.24510259926319,1.91821146011353,-0.43376424908638,0.5466213518259478,0.13301151139395612,0.8581752193217376
1004,274.776821,0.38475140929222,1.74956750869751,-0.28074482083321,0.544936608295051,0.13589425962798468,0.8556698779670561
1005,274.785154,0.42775771021843,1.88296639919281,-0.44570046663284,0.544198629807453,0.13441719570938468,0.8565395705553948
1006,274.79348699999997,0.33805665373802,1.88957488536835,-0.38133192062378,0.5442698147832132,0.13406264538667653,0.8559398261868223
1007,274.80181999999996,0.42716863751411,1.83286511898041,-0.42029121518135,0.5434369067756499,0.13302844397875713,0.8570238035552357
1008,274.810153,0.39919781684875,1.93032717704773,-0.39027127623558,0.5445117366557214,0.13526455480225205,0.856461816904496
1009,274.818486,0.4819061756134,2.00494146347046,-0.42812913656235,0.5453383192724112,0.13504583008435306,0.856022250895598
1010,274.826819,0.44371536374092,1.89252054691315,-0.44654574990273,0.5447238805342693,0.1365208625793459,0.8547179552973531
1011,274.835152,0.48559466004372,1.83345413208008,-0.51893156766891,0.5472224585864011,0.13291103499276327,0.8563681038058529
1012,274.843485,0.58922988176346,1.70420467853546,-0.50904446840286,0.5456237890282459,0.1357338014914061,0.8572384775901327
1013,274.851818,0.57137674093246,1.69424092769623,-0.51109367609024,0.5450557689277489,0.13379204029939593,0.8554592911078011
1014,274.860151,0.69222468137741,1.56916642189026,-0.52151864767075,0.5440496425239408,0.13442881253300917,0.8564259081470724
1015,274.86848399999997,0.60480326414108,1.68015289306641,-0.54549354314804,0.5439226967947826,0.13674922135411427,0.8541232712414796
1016,274.87681699999996,1.03440535068512,1.42506086826324,-0.61841726303101,0.5440787393219612,0.13439711259335918,0.8596691793324999
1017,274.88515,0.76660841703415,1.00199031829834,-0.65445643663406,0.5454999086808183,0.1361886700805357,0.8530860044518295
1018,274.893483,1.3272271156311,0.96426051855087,-0.66524010896683,0.5448337477080673,0.1264900212385214,0.8580120242371847
1019,274.901816,1.25806879997253,0.83652251958847,-0.53289139270782,0.5438364768514826,0.13373407782340507,0.8538442728470785
1020,274.910149,0.39479222893715,1.0153865814209,-0.44841557741165,0.5427138659418846,0.13470918548350408,0.854113539870904
1021,274.918482,0.78220754861832,0.98931151628494,-0.40679252147675,0.5439182203643173,0.12715564698589082,0.8624496265333531
1022,274.926815,0.96014958620071,0.9801926612854,-0.29104173183441,0.5437255392269214,0.13247868236230304,0.8573653746624376
1023,274.93514799999997,0.51064544916153,1.06530892848969,-0.21348185837269,0.5462246525044346,0.13265749629662957,0.8556442844624418
1024,274.94348099999996,0.52199250459671,0.92468672990799,-0.22677564620972,0.5457444093665296,0.1324042373774,0.8579119857476684
1025,274.951814,0.64079129695892,0.70099747180939,-0.11476457864046,0.546896165731002,0.13336842157402856,0.8578841540278224
1026,274.960147,0.56797009706497,0.52210772037506,-0.00347072910517,0.5482727167557694,0.13853451427148264,0.856150023791255
1027,274.96848,0.63866531848907,0.30671766400337,-0.07319267839193,0.5462910691086121,0.13633099137520305,0.8576010684577785
1028,274.976813,0.8285436630249,0.08412995189428,-0.06760877370834,0.5467881475176133,0.13581640866337957,0.8618948410968387
1029,274.985146,1.03791439533234,-0.21792590618134,-0.19649960100651,0.5471873769954755,0.13441724436623673,0.8572324441403755
1030,274.993479,1.08358454704285,-0.28603419661522,-0.19334904849529,0.544945901753951,0.13534496025163265,0.8566486592195469
1031,275.001812,1.11672937870026,-0.26400595903397,-0.29980185627937,0.5428007670811245,0.13427857233553467,0.8566944939749581
1032,275.01014499999997,1.12661647796631,-0.42739912867546,-0.25648811459541,0.541195042279302,0.13571059217258366,0.8604636484262898
1033,275.01847799999996,1.0126074552536,-0.25596305727959,-0.35948297381401,0.5368858454178785,0.13683677936086835,0.8589584973393652
1034,275.026811,1.20748054981232,0.05170233547688,-0.35730576515198,0.5400673710570041,0.1356142516038857,0.8601498117252275
1035,275.035144,1.15476679801941,0.24923934042454,-0.18323144316673,0.5379470513791448,0.1355485648525,0.8570244847511754
1036,275.043477,1.18847477436066,0.35625559091568,-0.39636746048927,0.5393966363400826,0.1368543201563306,0.8591184810716275
1037,275.05181,1.18055999279022,0.40850859880447,-0.5036398768425,0.5394740007361591,0.13463767207398672,0.859489246290557
1038,275.060143,1.31252467632294,0.42159748077393,-0.57210677862167,0.538021496364049,0.1351215766400704,0.8591337593234316
1039,275.068476,1.29013764858246,0.5471585392952,-0.59326416254044,0.5383791728895541,0.1342391602847041,0.8605680660325653
1040,275.07680899999997,1.31237101554871,0.46883010864258,-0.70081830024719,0.5394185805807306,0.13638867407428978,0.8595199974215766
1041,275.08514199999996,1.61989533901215,0.51862424612045,-0.82742947340012,0.5382306235177173,0.13459501217822653,0.8596173111273315
1042,275.093475,1.57225286960602,0.5906770825386,-0.72904509305954,0.5394538081422143,0.13270019268502958,0.8606699534824918
1043,275.101808,1.63231825828552,0.48463410139084,-0.94768822193146,0.5366990517596806,0.1335662603378296,0.8564294114404795
1044,275.110141,1.54961001873016,0.61390912532806,-0.89658784866333,0.5386940313845265,0.1327117973444408,0.8599975157757194
1045,275.118474,1.58303654193878,0.56485790014267,-1.05908453464508,0.5401070263921,0.1344990365359245,0.8594607333747704
1046,275.126807,1.71684539318085,0.75263595581055,-1.10178363323212,0.5401146655180019,0.13361224106379896,0.8643765352210223
1047,275.13514,1.81356465816498,0.69131541252136,-1.06635904312134,0.5395758881860847,0.13579499964811326,0.85959395583795
1048,275.143473,1.7443550825119,0.68760132789612,-1.15188503265381,0.5392224934636326,0.13280974358928468,0.862048012869699
1049,275.15180599999997,1.96860754489899,0.62594777345657,-1.12191605567932,0.5392668685134572,0.13622472480851733,0.8605212581400968
1050,275.160139,2.01735162734985,0.53586268424988,-1.05767583847046,0.5389115761737439,0.13226051719821225,0.8578052326124541
1051,275.168472,2.17616009712219,0.55996561050415,-1.23761582374573,0.541918666995302,0.1358011425757898,0.8602405080989919
1052,275.176805,2.25182437896729,0.23753359913826,-1.15511226654053,0.5351721510595203,0.1336421163714663,0.8599491508639592
1053,275.185138,2.27792501449585,0.44021904468536,-1.27452600002289,0.5367661009029469,0.13232728656457346,0.8634526388985764
1054,275.193471,2.19908475875854,0.43586459755898,-1.38277173042297,0.5386888251012684,0.13249146695039693,0.8607984075740888
1055,275.201804,2.2937548160553,0.55100065469742,-1.46955275535583,0.539473903422453,0.13447315109019387,0.8622605460030693
1056,275.210137,2.2204213142395,0.64451825618744,-1.55943322181702,0.5363296489326316,0.1328003771451051,0.8600128913412285
1057,275.21846999999997,2.37584853172302,0.53693842887878,-1.62188076972961,0.5401628358023509,0.13318209015593266,0.8582341914274254
1058,275.22680299999996,2.3450345993042,0.27856761217117,-1.77141666412354,0.5385845048086979,0.1329278580996459,0.8625540441396284
1059,275.235136,2.39931082725525,0.21330250799656,-1.80894124507904,0.5337744343037509,0.1315567931350398,0.8574171455539
1060,275.243469,2.24170660972595,0.76475131511688,-1.85276710987091,0.5307182000607856,0.13134492903339592,0.8593807415086397
1061,275.251802,2.02403688430786,0.92501980066299,-2.02648329734802,0.5284412053166602,0.1329650805920969,0.8603306205905213
1062,275.260135,1.93525791168213,1.30733776092529,-2.20337462425232,0.5286708656622439,0.12936701579969795,0.8605614487005734
1063,275.268468,1.19815707206726,1.75015664100647,-2.30485844612122,0.5302453041076662,0.1303526576684449,0.8603583549966622
1064,275.276801,1.46011388301849,2.35831546783447,-2.44450736045837,0.5233281972456948,0.1301766293389459,0.8657780472113162
1065,275.28513399999997,1.2394984960556,3.10381770133972,-2.80886960029602,0.5311204949203806,0.13262096716433164,0.8604490513704264
1066,275.29346699999996,0.85794878005981,3.33291149139404,-3.19144415855408,0.5262185116203459,0.13082134480379082,0.8631872644229805
1067,275.3018,1.14119100570679,3.69115209579468,-3.51100707054138,0.5212388233262664,0.1267064225916959,0.8684784052323327
1068,275.310133,1.01808893680573,5.18786859512329,-4.17656707763672,0.522051003514504,0.12326398674322651,0.8649790043733561
1069,275.318466,-0.00106299086474,7.14974069595337,-4.84346008300781,0.5172276496887204,0.12868618478580407,0.8625205682248488
1070,275.326799,0.97288000583649,8.30253601074219,-6.4365119934082,0.5179289409092489,0.1340653458420112,0.8763944859407388
1071,275.335132,1.08148431777954,11.10419464111328,-7.31149387359619,0.5120392721526479,0.14451647291378059,0.8739952165253306
1072,275.343465,0.77229499816895,14.94243717193604,-9.73542213439941,0.5169273882496112,0.15662582553162857,0.8710326953810091
1073,275.351798,4.00442886352539,18.88478088378906,-13.97030639648438,0.5095091644598511,0.17105597622540508,0.8777045230476223
1074,275.36013099999997,12.87395763397217,24.81098556518555,-18.69222259521484,0.5063878760045887,0.19738962455671633,0.8750109769860092
1075,275.36846399999996,12.81528854370117,39.0462532043457,-23.50065994262695,0.2992830227832408,0.1266510632573347,0.9860300531192703
1076,275.376797,2.86406922340393,65.20891571044922,-34.9604377746582,0.3142545661147755,0.3054052469681724,0.931971413748605
1077,275.38513,31.64360809326172,86.96089172363281,-45.10548400878906,0.4578979647889428,0.18975588740134694,0.9023039681570866
1078,275.393463,25.61731719970703,97.67073822021484,-52.98517227172852,0.5513506032982652,0.14801496145676632,0.8977297374180386
1079,275.401796,34.07180404663086,100.86483001708984,-57.99110794067383,0.557879185190006,0.11971656157045918,0.8867088629274948
1080,275.410129,35.6180419921875,107.43356323242188,-63.66971969604492,0.5578912034326673,0.22805678601167653,0.9584097959557356
1081,275.418462,51.02460479736328,107.418701171875,-71.83487701416016,0.5164634451574204,0.27789660862513976,0.9554521404967019
1082,275.42679499999997,61.60877990722656,119.44486236572266,-78.5947494506836,0.46753445450140513,0.22742570662985,0.9397992309258908
1083,275.43512799999996,64.2332763671875,132.0160369873047,-85.72389221191406,0.555576305000149,0.1974264577943449,1.0291877084848837
1084,275.443461,70.21985626220703,138.17369079589844,-92.91629791259766,0.6352847936202071,0.23827866632111222,0.9875662472783305
1085,275.451794,77.39779663085938,143.9477996826172,-99.26004791259766,0.7853971208844867,0.2751995592701194,1.0167165678374623
1086,275.460127,82.7100830078125,136.70982360839844,-103.42685699462892,0.9097394164727663,0.36537474515486734,1.0667772682345642
1087,275.46846,93.13883972167967,126.68048858642578,-100.22972869873048,0.8808739331303806,0.4513986256657816,1.1535803152590378
1088,275.476793,86.3807601928711,113.2966537475586,-89.62057495117188,0.6859416864356214,0.5261257230019082,1.3362068059493082
1089,275.485126,83.11579895019531,101.63937377929688,-70.9006576538086,0.6429460097332388,0.767171285590347,1.3414799437230949
1090,275.493459,76.01681518554688,86.62100982666016,-48.01729583740234,0.3973890810596704,0.9061554500034876,1.2129658095690674
1091,275.50179199999997,81.70556640625,75.79761505126953,-20.69488334655762,0.3181721239673847,1.0085899002697998,1.2002279320541693
1092,275.51012499999996,82.49330139160156,61.16836166381836,15.47549915313721,0.21739358804663877,0.9932647432599745,1.1664928708757671
1093,275.518458,72.18262481689453,54.14516830444336,54.69758224487305,0.16334062936354693,1.0337192185071051,1.1428946864848233
1094,275.526791,72.06523895263672,35.12269592285156,91.30522918701172,0.16363181629959386,0.9641651231415417,1.149585490324059
1095,275.535124,60.06162261962891,23.69888114929199,121.92687225341795,0.09069201897601735,0.8387051796426581,1.1230297477877866
1096,275.543457,52.43986129760742,12.98653411865234,148.4991912841797,0.07663001819532754,0.8058815586323642,1.122216691776198
1097,275.55179,52.21078109741211,2.62830901145935,167.33128356933594,0.1021295664261796,0.6475903063404316,1.1324732644217357
1098,275.560123,48.90848541259766,-7.5204906463623,178.94186401367188,0.13973745764518264,0.4865257107481663,1.1226408822195866
1099,275.56845599999997,44.05511474609375,-20.33468437194824,183.6166534423828,0.2296055579672051,0.1743154501428408,1.1862856028031326
1100,275.57678899999996,28.41181182861328,-38.65888977050781,178.98960876464844,0.21631853921072855,0.05009112005331122,1.2435834261835834
1101,275.585122,22.24514389038086,-55.40176010131836,167.10203552246094,0.15666364407052755,-0.1123764563579949,1.2460596707402436
1102,275.593455,14.36375141143799,-67.49845886230469,148.4695587158203,0.14013421778776222,-0.21815840078859897,1.2523116870802276
1103,275.601788,8.21843242645264,-78.15950775146484,124.03748321533205,0.14791832894695,-0.3242275422933153,1.2493956818872571
1104,275.610121,-0.10352146625519,-87.53008270263672,96.73869323730467,0.16414817498654694,-0.39208677350258364,1.2422887646422092
1105,275.618454,-9.72234916687012,-96.13249969482422,68.88053131103516,0.2051817154397765,-0.4180984107815489,1.2370518275669642
1106,275.626787,-19.33993148803711,-105.1201400756836,43.04289245605469,0.2602170438182602,-0.40316946652470814,1.2482246087521918
1107,275.63512,-28.78601264953613,-114.89860534667967,19.90865898132324,0.3017298299439102,-0.35050477300371424,1.239300455365862
1108,275.64345299999997,-38.26385879516602,-122.84123992919922,-0.17357739806175,0.34017881568597247,-0.26534423536183877,1.2205537484616653
1109,275.651786,-46.04819488525391,-130.16285705566406,-15.11192321777344,0.37507181264916223,-0.17922738376928876,1.1849204861387916
1110,275.660119,-53.50645446777344,-134.86492919921875,-26.22032165527344,0.401205578628851,-0.09144836542557652,1.1319659680736305
1111,275.668452,-58.27885055541992,-137.13418579101562,-33.5263557434082,0.42039180288509487,-0.005601104729029592,1.0814951877204733
1112,275.676785,-63.09461212158203,-136.5815887451172,-38.26757049560547,0.43910036281663567,0.06347164207575307,1.033310792884048
1113,275.685118,-65.400146484375,-134.3276824951172,-40.34771728515625,0.4686144420078826,0.11411451563543161,1.0167553960060591
1114,275.693451,-68.96084594726562,-130.910400390625,-40.26644897460938,0.5067005935980347,0.14810602275692653,0.9978496785066562
1115,275.701784,-72.03121185302734,-126.32282257080078,-38.11585235595703,0.5551660304166836,0.16017254518002855,1.0022359964798908
1116,275.71011699999997,-76.3271713256836,-122.00308227539062,-34.47876739501953,0.6040651944218847,0.17104315514467244,1.0137748718261714
1117,275.71844999999996,-80.0108871459961,-117.62123870849608,-29.58981704711914,0.6551856897315204,0.1750483683177398,1.0239565129182775
1118,275.726783,-82.8773422241211,-113.92855072021484,-24.18843269348145,0.737513522712552,0.16351303275750612,1.0642062401284977
1119,275.735116,-84.99568176269531,-112.59483337402344,-18.79305076599121,0.8231615533634111,0.13758607056676123,1.1060417914877132
1120,275.743449,-85.64651489257812,-113.91977691650392,-14.94895648956299,0.8959459771915357,0.12647154379864078,1.1292405031165296
1121,275.751782,-84.311279296875,-116.98458862304688,-12.28731155395508,0.9670478470471437,0.09659885143747142,1.1588142356094049
1122,275.760115,-81.930908203125,-122.10131072998048,-10.77433490753174,0.9863202425898335,0.04725640829728571,1.140835820412149
1123,275.768448,-81.718017578125,-125.71493530273438,-10.49432373046875,0.9802661623273582,-0.007455052465808163,1.1017723472750918
1124,275.77678099999997,-78.63092803955078,-107.59413909912108,-17.8552131652832,0.687596603315704,0.35743813125454693,0.736269172357053
1125,275.78511399999996,4.37088251113892,-100.88190460205078,-33.83639526367188,0.8209208079746796,-0.03801968632912143,1.0372589072402643
1126,275.793447,-66.47463989257812,-89.78321838378906,-34.71908950805664,1.0658550262451172,-0.48245118588817343,0.822344799431003
1127,275.80178,-52.90760803222656,-102.8953857421875,-31.95532989501953,1.042057056816257,-0.10307386213419388,0.6776166448787765
1128,275.810113,-68.56257629394531,-96.28826141357422,-33.25802993774414,1.0220823482591275,-0.29584081805482243,0.7066221139868907
1129,275.818446,-73.6411361694336,-93.86827850341795,-31.54067611694336,1.020333815594109,-0.1550568609821551,0.5158340687654459
1130,275.826779,-69.82522583007812,-86.69345092773438,-28.57368659973145,1.0459915472536672,-0.0796971272449102,0.46244256350458873
1131,275.835112,-59.66500854492188,-81.4748764038086,-23.54501533508301,1.0590140673578998,-0.06634678159441225,0.3687714070689918
1132,275.843445,-52.76643753051758,-71.13190460205078,-17.06513214111328,1.0532035633009305,-0.02750373312405204,0.2680467342843816
1133,275.85177799999997,-38.96315765380859,-60.52743530273438,-9.5361852645874,1.0688230942706674,0.012128225394658161,0.18519441692196634
1134,275.86011099999996,-22.63167953491211,-48.45882034301758,-2.6131579875946,1.0809862370393712,0.055388893399919384,0.08274107563252346
1135,275.868444,-3.15679144859314,-35.61225128173828,5.00438642501831,1.0872912893489919,0.06466018302099999,0.0030133692661714283
1136,275.876777,17.05788803100586,-21.24325752258301,12.64035129547119,1.104351744359853,0.06309172936848265,-0.10164900093662449
1137,275.88511,36.99192810058594,-3.40521311759949,19.97700881958008,1.0999574466627469,0.022977044691844896,-0.18733726472270712
1138,275.893443,53.5932502746582,14.78979778289795,27.86453819274902,1.1378428400779255,-0.03286280498212653,-0.2843311854771204
1139,275.901776,69.59130096435547,33.85223007202148,34.94633865356445,1.1696743478580398,-0.06555702005113877,-0.39961058266308874
1140,275.910109,86.76056671142578,54.41406631469727,39.73529815673828,1.1852881373191366,-0.11299615003624693,-0.4926896095275878
