,timestamp,GyrY,GyrX,GyrZ,AccY,AccX,AccZ
193,268.002092,3.72086477279663,0.25875499844551,-0.19197867810726,0.9184456844719092,0.3510832543275796,0.18682715844134895
194,268.010425,3.93146467208862,0.26100903749466,-0.10294360667467,0.9167194366455081,0.3512939385005408,0.18857875648809896
195,268.018758,3.80436635017395,0.29648470878601,-0.15729700028896,0.9169345972489337,0.35007345433137854,0.18918937566328978
196,268.027091,3.58938694000244,0.43382832407951,-0.17847999930382,0.9185814370914377,0.34825845640532854,0.1868052506933408
197,268.035424,3.57640075683594,0.42978128790855,-0.26398032903671,0.9189578465053009,0.3523042737221235,0.18665889087988366
198,268.04375699999997,3.42277884483337,0.30325973033905,-0.25098106265068,0.9175876695282601,0.3492420303578275,0.18863417664352755
199,268.05208999999996,3.23489856719971,0.36926761269569,-0.31030365824699,0.9179220394212366,0.3501137178771347,0.1876390345242561
200,268.060423,3.40898561477661,0.38111418485641,-0.21764414012432,0.9182683789000213,0.3534835455368979,0.19016145443429794
201,268.068756,3.30291676521301,0.31741160154343,-0.16262476146221,0.9180037829340724,0.35206639036840304,0.18768308114032345
202,268.077089,3.3135986328125,0.46822825074196,-0.02697178907692,0.9170877690217929,0.3537015525662173,0.19102943186857244
203,268.085422,3.16305088996887,0.47374811768532,-0.05516025796533,0.9167192420180958,0.35153026483496835,0.18798867050482346
204,268.093755,3.24893522262573,0.43509617447853,0.00783795583993,0.9195338463296693,0.35534126417977446,0.1859621369108857
205,268.102088,3.41951322555542,0.50810956954956,0.09596372395754,0.9209708778225641,0.35713108218446016,0.19150184125316427
206,268.110421,3.28257966041565,0.49105048179626,0.22785143554211,0.9199309835628591,0.3519575693169418,0.18803830049475814
207,268.11875399999997,3.08643865585327,0.4150402545929,0.07901991903782,0.917814118521554,0.3486558369227816,0.19156369627738468
208,268.12708699999996,2.81376218795776,0.34041318297386,0.19708873331547,0.9181124823434009,0.3511546096023245,0.18934888499123673
209,268.13542,2.72590494155884,0.39858308434486,0.23389638960361,0.9200237235244438,0.35324174530652136,0.18841157154161123
210,268.143753,2.6792106628418,0.41697412729263,0.23912169039249,0.9194457774259602,0.3515153515095612,0.18637995330654794
211,268.152086,2.71996307373047,0.38595530390739,0.36296653747559,0.9157134075554051,0.35128591011981525,0.18544257903585612
212,268.160419,2.78474140167236,0.46354082226753,0.37047150731087,0.9166799272809713,0.34842936360106225,0.18572779334321327
213,268.168752,2.52027440071106,0.51113206148148,0.43340569734573,0.9169304127595868,0.35184582885430815,0.18399631490512752
214,268.177085,2.76163721084595,0.60344570875168,0.26506888866425,0.9178120749337335,0.35144061458354076,0.18475938816459794
215,268.18541799999997,2.60896372795105,0.72574090957642,0.28062957525253,0.917416786660953,0.3506191166079775,0.18542714264928062
216,268.19375099999996,2.92646479606628,0.79355472326279,0.37736174464226,0.9193114845120173,0.35421962640723365,0.18430462905338876
217,268.202084,3.06022238731384,0.77831423282623,0.24588385224342,0.9176676613943918,0.35250369383364283,0.18505923602045815
218,268.210417,3.16224384307861,0.83297497034073,0.18084931373596,0.9171394425995499,0.34826091357639893,0.185715775100552
219,268.21875,3.08465814590454,0.94857186079025,0.25679549574852,0.9173925555482204,0.3493052599381429,0.18600837308533366
220,268.227083,3.1382691860199,0.7778787612915,0.28614944219589,0.916733741760254,0.350512996011851,0.18688717666937346
221,268.235416,3.24172449111938,1.01194155216217,0.28207677602768,0.9176488798491806,0.3476631154819408,0.1856842941167408
222,268.243749,3.11370468139648,0.89414179325104,0.4078426361084,0.917102268763951,0.34935846620676425,0.18821773480395917
223,268.252082,2.81556797027588,1.05327010154724,0.42120045423508,0.9152169130286387,0.3499646332799173,0.18303219152956632
224,268.26041499999997,2.68713808059692,0.94451206922531,0.38295841217041,0.9169316778377612,0.35021249128847753,0.18688122836910917
225,268.26874799999996,2.52818942070007,0.89076066017151,0.41286307573318,0.9147899978014887,0.35046056825287447,0.18761136093918163
226,268.277081,2.41546082496643,0.93215316534042,0.47559225559235,0.9136235957242999,0.3470215992051724,0.18540820296929794
227,268.285414,2.31580877304077,1.07286512851715,0.5048565864563,0.9161862548516724,0.3508046208595745,0.18411114507791937
228,268.293747,2.18673896789551,1.08480131626129,0.56925082206726,0.9171075237040611,0.3499347823006765,0.18114318653028877
229,268.30208,2.42042994499207,1.15602171421051,0.57325941324234,0.9158045904976978,0.3515265182572969,0.18333138251791223
230,268.310413,2.59401750564575,1.31021928787231,0.42495295405388,0.9141619351445408,0.35066254284917137,0.1842984617972857
231,268.318746,2.67221784591675,1.25133216381073,0.49690330028534,0.9132159486108898,0.3493436745234898,0.18355054514748673
232,268.32707899999997,2.81263518333435,1.38790738582611,0.41854944825172,0.9121827689968806,0.34867787847713566,0.1857695530871959
233,268.33541199999996,3.15660881996155,1.48867392539978,0.52700012922287,0.9145793136285275,0.35079515710168974,0.18420476086285612
234,268.343745,3.40209531784058,1.74863255023956,0.60176801681519,0.9121338202028856,0.3499354878250428,0.1842058191494061
235,268.352078,3.83381080627441,2.03544807434082,0.62462878227234,0.9130222943364357,0.34977827753339485,0.1847576973389602
236,268.360411,4.05793523788452,2.56878781318665,0.31869232654572,0.9169660295758928,0.3498572476056153,0.18350275195374796
237,268.368744,4.35516309738159,2.50987482070923,0.26800176501274,0.9193746411070529,0.35342464641648874,0.1817244899516204
238,268.377077,4.67856788635254,2.21149444580078,0.42729663848877,0.9203476808509051,0.353257047886751,0.18665138556032754
239,268.38541,4.75596189498901,2.47638440132141,0.30546256899834,0.9240552357264928,0.35210361286085506,0.18721494139457243
240,268.393743,4.85110521316528,2.29325532913208,0.27578845620155,0.9362383278048764,0.35280222795447547,0.1890348050059102
241,268.40207599999997,5.14078998565674,2.15733313560486,0.14706413447857,0.9307550897403642,0.35473242097971425,0.18748481662905916
242,268.410409,5.01074647903442,1.90242028236389,0.26099625229836,0.9295585204143918,0.35166088415651936,0.18728071329544999
243,268.418742,4.93532514572144,1.33291351795197,0.28652083873749,0.9276343365104827,0.3508526695017908,0.19042477315785916
244,268.427075,4.70255565643311,1.47184526920319,0.37095817923546,0.9303049165375377,0.34747780585775606,0.18667268509767446
245,268.435408,4.37361764907837,0.94470429420471,0.45218089222908,0.924888143734056,0.3493454991554724,0.1865152436859755
246,268.443741,4.22784757614136,0.9417330622673,0.56721442937851,0.9301396778651642,0.35180113753493975,0.18827011390608162
247,268.452074,3.58464813232422,-0.00931077543646,0.67207908630371,0.9159370344512316,0.34567815916878875,0.18737920692988774
248,268.460407,2.73753428459167,-0.13786861300468,0.7705146074295,0.9159791712858235,0.34279623810125814,0.18453512872968367
249,268.46873999999997,3.00134778022766,0.73923963308334,0.50027161836624,0.9296603105506122,0.3457591971572561,0.18007730951114592
250,268.47707299999996,2.9093930721283,0.39022007584572,0.72326910495758,0.9317358172669704,0.34651787913575505,0.18187285686025814
251,268.485406,2.54132914543152,0.14200532436371,0.96515715122223,0.9191942214965816,0.3425808585419949,0.1786875603150347
252,268.493739,2.22568488121033,0.5576730966568,1.07263445854187,0.9147258680693958,0.3399442653266755,0.1771106525343296
253,268.502072,1.7222626209259,0.24128609895706,1.05109286308289,0.9223309341742071,0.33963524565404796,0.17846733939890916
254,268.510405,1.36992609500885,-0.05558288469911,1.18555474281311,0.9143581195753449,0.34304662626616833,0.17663219753576734
255,268.518738,0.96445268392563,0.49559697508812,0.8952174782753,0.9275230096310988,0.3417810858512408,0.17761238983699285
256,268.527071,0.73589694499969,0.34892994165421,0.99618875980377,0.9217657361711775,0.3419620893439469,0.1781517753795704
257,268.53540399999997,0.39302480220795,0.9246866106987,0.69499099254608,0.9322652038262816,0.3432473844411418,0.17860939308088672
258,268.54373699999996,0.2402231246233,0.16083179414272,0.86510801315308,0.9243406568254744,0.34547715770955,0.17857440880366732
259,268.55207,-0.08445012569427,0.15161064267159,0.79571896791458,0.9253771451054784,0.3473464323549857,0.18095816884722038
260,268.560403,-0.4118384718895,0.73849684000015,0.71722424030304,0.9307198621788805,0.3467077868325367,0.18053922117972857
261,268.568736,-0.65376490354538,0.0021644027438,0.62854766845703,0.926923751831055,0.3486923295624398,0.18091291797404388
262,268.577069,-0.81043440103531,0.63925451040268,0.33307471871376,0.9310724297348337,0.3505389544428612,0.18022538447866632
263,268.585402,-0.66448444128036,-0.20267263054848,0.40963563323021,0.9242998823827623,0.35420734055188263,0.18527839865003265
264,268.593735,-0.50866025686264,-0.12084795534611,0.57888168096542,0.9233568152602836,0.3542357804823898,0.18612427370888876
265,268.602068,-0.56097733974457,0.32537761330605,0.36473390460014,0.9334153545146081,0.34773770643740304,0.1857404076323214
266,268.61040099999997,-0.45805937051773,-0.4862734079361,0.68854904174805,0.9232225223463408,0.34886895393838674,0.18950802939278774
267,268.61873399999996,-1.26157784461975,-0.01210272498429,0.58744961023331,0.9292142245234275,0.3456049062767806,0.18756286222107552
268,268.627067,-1.38888049125671,-0.54503244161606,0.63844758272171,0.9232794508642082,0.3469625297857785,0.18543095004801835
269,268.6354,-1.85883772373199,-0.48897570371628,0.81501930952072,0.921121130184251,0.34838433168372346,0.1848401220477357
270,268.643733,-2.25275897979736,-0.3431538939476,0.86706757545471,0.9241066173631315,0.3520757811410081,0.1831222432000296
271,268.652066,-2.05469703674316,-0.42759120464325,0.81408441066742,0.9268939738370937,0.35461000033787343,0.18476318339912243
272,268.660399,-1.93103158473969,-0.30256813764572,0.68880516290665,0.9285562865588133,0.35622582143666837,0.18170907789347143
273,268.668732,-1.34810280799866,-1.01607823371887,0.90977919101715,0.9225922214741611,0.35626238706160607,0.18174043723515101
274,268.67706499999997,-0.86217510700226,-1.02471029758453,0.92115187644958,0.9179790652528103,0.356697671267451,0.1826040477168806
275,268.68539799999996,-0.63609105348587,-0.92203551530838,0.65536576509476,0.9274587825852999,0.35288404445258975,0.1791451415237112
276,268.693731,-0.38380369544029,-1.16604959964752,0.67172050476074,0.925812915879853,0.35424526856870103,0.1799246607994551
277,268.702064,-0.34907078742981,-1.45180213451385,0.42656669020653,0.9189412058616172,0.357167696466251,0.17828026596380714
278,268.710397,0.01105254236609,-0.84820258617401,0.47615587711334,0.9247955010861764,0.3516016444381398,0.1784386318557112
279,268.71873,0.1612800359726,-1.36709582805634,0.28397223353386,0.9254734856741764,0.35117976519526223,0.17664602824619793
280,268.727063,-0.01750732958317,-1.20092332363129,0.39228197932243,0.923937096887705,0.3497134422769347,0.17528260240749385
281,268.735396,0.05428937450051,-1.12744903564453,0.1606909185648,0.9243399756295336,0.3504440492513224,0.17449141765127346
282,268.743729,0.04059856012464,-1.10581767559052,0.17082132399082,0.9236268607937561,0.34749678203037854,0.17433959610608163
283,268.75206199999997,0.07343600690365,-1.24180364608765,0.21362270414829,0.9224985083755183,0.34819819489303877,0.17305938565001225
284,268.76039499999996,-0.05645376816392,-1.23395299911499,0.16304740309715,0.92469546259666,0.34767853970430307,0.1740199084184612
285,268.768728,-0.2071423381567,-0.86259782314301,0.16535271704197,0.9270150320870529,0.3524388099203306,0.17438703653763776
286,268.777061,-0.49211347103119,-1.29157197475433,0.00724882865325,0.9261122528387571,0.347411364925151,0.17546656180401224
287,268.785394,-0.73665249347687,-1.48045146465302,-0.00833743344992,0.9204402261850785,0.34886240959167447,0.17049896473787243
288,268.793727,-1.44496297836304,-0.75426232814789,0.06772403419018,0.9264070160534918,0.34604216108516733,0.17532203878675204
289,268.80206,-2.01668548583984,-1.06571853160858,-0.0094772670418,0.9280103566695234,0.346543180699251,0.17191591311474283
290,268.810393,-2.28017902374268,-1.29747629165649,0.0567483343184,0.9178206385398398,0.3522985808703367,0.17537575595232857
291,268.81872599999997,-2.40629076957703,-0.9050789475441,0.05391796305776,0.9215044488712234,0.35342235954440404,0.17291092142766834
292,268.82705899999996,-2.45070600509644,-1.24877083301544,0.00012807118765,0.9239494557283368,0.35729892399846325,0.17406489167894593
293,268.835392,-2.62020826339722,-0.98605841398239,-0.07676586508751,0.9232873332743745,0.35816005298069586,0.17409726065032347
294,268.843725,-2.61038517951965,-0.87854260206223,0.06078257411718,0.9254815627117551,0.3569806595237887,0.17371714115142856
295,268.852058,-2.52035117149353,-1.01370906829834,0.05338006839156,0.9245299319831694,0.36120390405460306,0.17290761276167244
296,268.860391,-2.30570387840271,-1.19866943359375,0.07571568340063,0.9204746752369162,0.36144964549006225,0.1765470967000847
297,268.868724,-2.12415027618408,-1.06875383853912,0.06331839412451,0.9221168440215437,0.3590223497273969,0.17635419660684998
298,268.877057,-2.00220060348511,-1.0980052947998,-0.02099086344242,0.9216430235882194,0.3622937202453612,0.17680357913581735
299,268.88539,-1.80100095272064,-1.13056111335754,-0.00029456368065,0.919855565440898,0.3596375426467582,0.17827856297395714
300,268.89372299999997,-1.43554961681366,-1.14163911342621,0.03361868113279,0.9186226007889724,0.3608173740153408,0.18016446609886327
301,268.902056,-1.22082555294037,-1.05744516849518,0.08945770561695,0.921485472698601,0.36084194572604383,0.17888822117630307
302,268.910389,-0.88365262746811,-1.03048634529114,0.24435979127884,0.922190510496801,0.3595194038079714,0.17776930818752346
303,268.918722,-0.58458083868027,-1.12505400180817,0.24697244167328,0.9216395202948122,0.35866759261306425,0.18129613934731018
304,268.927055,-0.23478010296822,-1.07496547698975,0.17216607928276,0.92203578170465,0.3572998241502408,0.17857729172219997
305,268.935388,0.02713828533888,-0.95895856618881,0.26097065210342,0.9212203901641224,0.36003470420837447,0.18284415712161936
306,268.943721,0.30292677879333,-1.0806006193161,0.24298945069313,0.9238845474865969,0.35704656523101225,0.1807085470277439
307,268.952054,0.42359545826912,-0.99845576286316,0.21404537558556,0.9215569982723315,0.3537066128789163,0.17900938890418264
308,268.96038699999997,0.50120651721954,-1.09835124015808,0.21015198528767,0.9233158461901602,0.3555239949907571,0.18107784037687347
309,268.96871999999996,0.39580395817757,-1.29821908473969,0.29634389281273,0.9235561137296713,0.35442629638983264,0.1792808941432408
310,268.977053,0.30583393573761,-1.13955163955688,0.21034409105778,0.9227153233119417,0.35466276869481933,0.17825249506502755
311,268.985386,0.23137338459492,-1.13980782032013,0.17755787074566,0.9221803898714029,0.355891183931,0.17991810428852956
312,268.993719,0.39392128586769,-1.20000123977661,0.06623841077089,0.9221963493191468,0.35753048196130915,0.178324750491551
313,269.002052,0.58801317214966,-1.31117975711823,0.02644669637084,0.9208854363889112,0.35908073795085,0.17953781449064898
314,269.010385,0.49682646989822,-1.39765346050262,-0.03801152482629,0.9212671007428846,0.3583085050388255,0.18028665562065305
315,269.018718,0.65607017278671,-1.36105060577393,-0.09687303751707,0.9235546540240857,0.35692030069779385,0.1785948081892367
316,269.027051,0.75549185276031,-1.41303491592407,-0.10779751837254,0.9224693142637918,0.35752610284455,0.1800020251955306
317,269.03538399999996,0.94706070423126,-1.3304545879364,-0.11327895522118,0.9213329821216816,0.3569736286085479,0.17900064283487754
318,269.043717,1.03834986686707,-1.32761132717133,-0.12460044771433,0.9211713440564213,0.35745207144289587,0.18064680148144183
319,269.05205,1.13912904262543,-1.3857684135437,-0.26141887903214,0.9210588494125673,0.3552415662882275,0.17958254230265713
320,269.060383,1.2425080537796,-1.42880022525787,-0.18903303146362,0.9208562422771847,0.3542735138717959,0.1780921220779418
321,269.068716,1.29112386703491,-1.48538243770599,-0.24443662166595,0.9183917726789204,0.3531066738829316,0.1784676799968796
322,269.077049,1.33486032485962,-1.45368468761444,-0.37830942869186,0.9194920014361949,0.3533766464311245,0.1818270585974867
323,269.085382,1.38566625118256,-1.4928617477417,-0.29353913664818,0.9213745350740397,0.35407886213185813,0.1803665380088653
324,269.093715,1.20995247364044,-1.31563687324524,-0.29750937223434,0.9158877937161194,0.35407479928464286,0.17840453556605712
325,269.10204799999997,0.99896776676178,-1.30872082710266,-0.18859760463238,0.9176535509070571,0.3514826784328541,0.18227487194294795
326,269.11038099999996,0.84421944618225,-1.22715222835541,-0.2108691483736,0.9165500134837866,0.35131045750209283,0.1835434169185408
327,269.118714,0.79483538866043,-0.98758238554001,-0.04552930220962,0.9169624289687794,0.3528468706169908,0.17946850280372448
328,269.127047,0.68342620134354,-0.89087587594986,-0.01203869003803,0.921297851873904,0.3525796958378387,0.17853423040740304
329,269.13538,0.60061538219452,-0.76444405317307,-0.00043544196524,0.9222372210755642,0.3544190221903275,0.1770226566159
330,269.143713,0.67546015977859,-0.80127722024918,-0.18286001682281,0.924327616788903,0.35379640910090204,0.17977136738446325
331,269.152046,0.50803273916245,-0.94186103343964,-0.27249702811241,0.9274712387396365,0.35499925516089587,0.17847219291998367
332,269.160379,0.54258638620377,-0.93169224262238,-0.41391324996948,0.9246260779244561,0.3562349445965826,0.17764742277106427
333,269.16871199999997,0.4721599817276,-1.26264095306396,-0.41651305556297,0.9227211621342876,0.35682614968747545,0.17922177606699388
334,269.17704499999996,0.55415117740631,-1.30288088321686,-0.6497563123703,0.9220554390732122,0.35875668331068367,0.18040856536553876
335,269.185378,0.64185434579849,-1.20949137210846,-0.69978088140488,0.9241013624230214,0.36004346244189184,0.18292884437405305
336,269.193711,0.9363027215004,-1.31229412555695,-0.69377434253693,0.9212711879185266,0.36031275379414485,0.1848352320340214
337,269.202044,1.23739790916443,-1.29590094089508,-0.63798648118973,0.921654506605499,0.35987012240351424,0.18362408998061222
338,269.210377,1.55918967723846,-1.29223811626434,-0.50837850570679,0.9199098664887102,0.36188208327001425,0.18298711095537448
339,269.21871,2.21613097190857,-1.18438947200775,-0.3534252345562,0.9189784770109213,0.36124441088462345,0.18261042176460715
340,269.227043,2.50367641448975,-1.34227573871613,-0.13357824087143,0.9196346633288326,0.35998621765448163,0.18380419332153977
341,269.235376,2.66908025741577,-1.16160559654236,-0.03979171440005,0.9180154605787633,0.3574244586788877,0.18233745681996225
342,269.24370899999997,2.84081101417542,-0.95086449384689,0.07119476795197,0.9191250314517898,0.3551159099656704,0.18399408885410815
343,269.25204199999996,2.66144704818726,-0.91891062259674,0.1348333209753,0.9186301912580214,0.3510397064442541,0.17885733623893876
344,269.260375,2.72010397911072,-0.82705807685852,0.1808365136385,0.9201243458961947,0.35055941464949586,0.1827592265849214
345,269.268708,2.37287712097168,-0.85925507545471,0.13350136578083,0.9208023304841959,0.3496462471631112,0.18165193041976632
346,269.277041,2.03114485740662,-0.82053923606873,0.08290047943592,0.9218024234382469,0.34676690490878365,0.18086304469984385
347,269.285374,1.69398462772369,-0.78762483596802,0.01871119812131,0.9207401470262173,0.346282404296252,0.18205884768038366
348,269.293707,1.38325834274292,-0.92138248682022,-0.11715951561928,0.9215540788611593,0.34775006527803365,0.18174936576765408
349,269.30204,1.09000086784363,-0.94971179962158,-0.16754269599915,0.9215613773890907,0.34444368615442345,0.18345728212473364
350,269.31037299999997,0.5572761297226,-0.99768722057343,-0.26044553518295,0.9236028243084347,0.348263905972851,0.18030565612170202
351,269.31870599999996,0.18318019807339,-1.19489121437073,-0.32022911310196,0.9253742256943059,0.34936600801896117,0.18021515437534896
352,269.327039,-0.10829699039459,-1.28187716007233,-0.41899764537811,0.9232539546733,0.34925944951115817,0.18100706898436222
353,269.335372,-0.35854807496071,-1.33851027488708,-0.26367294788361,0.9221934299079734,0.3522833512753857,0.18213109094269386
354,269.343705,-0.52901077270508,-1.55310642719269,-0.35329714417458,0.9215343241788897,0.35380808674559283,0.18083920284193367
355,269.352038,-0.68110799789429,-1.47464990615845,-0.1964355558157,0.9207986325633765,0.35551161182169994,0.18169680420233264
356,269.360371,-0.59624814987183,-1.31018090248108,-0.11096086353064,0.9202330453055245,0.3544904991072051,0.17909188659823672
357,269.368704,-0.50416499376297,-1.2702739238739,-0.08304134756327,0.9199270910146284,0.35383217188776733,0.17980860204112753
358,269.377037,-0.41269654035568,-1.1624892950058,0.04094435274601,0.9175111809555366,0.3569991247994561,0.17901741728490714
359,269.38536999999997,-0.22440631687641,-1.05900776386261,0.08238819241524,0.919262243776905,0.3573056629725867,0.1840090751647949
360,269.39370299999996,0.00272791623138,-0.86526173353195,0.06871019303799,0.918888461833098,0.35527222010554077,0.18356896176630103
361,269.402036,-0.02891847118735,-0.95560300350189,0.031748842448,0.921705207046197,0.35448906373004485,0.1832996582498357
362,269.410369,0.32159954309464,-0.90004581212997,0.06543156504631,0.9215168077118541,0.35579554888666937,0.18435576740576323
363,269.418702,0.39585518836975,-0.98247247934341,0.02803478203714,0.922095726947395,0.3556021622249061,0.18066186077740712
364,269.427035,0.62579417228699,-0.78214335441589,0.00244615925476,0.9217007306157325,0.3543000318566143,0.1815873384475704
365,269.435368,0.74146807193756,-0.8257132768631,-0.09807689487934,0.9212847145236264,0.35762463297162755,0.18171213111098977
366,269.443701,1.0845193862915,-0.75053542852402,-0.10378887504339,0.9215000697544642,0.35422410283769895,0.179441473921951
367,269.45203399999997,1.24814331531525,-0.99146300554276,-0.09602776914835,0.9209496634347101,0.35525908275526424,0.18314124370107857
368,269.46036699999996,1.43629252910614,-0.88781493902206,-0.14726902544498,0.9224351571530713,0.3525752680642265,0.1834974726852102
369,269.4687,1.55347764492035,-0.82485514879227,-0.17173063755035,0.9225934865523358,0.3534066433809245,0.1809950629059153
370,269.477033,1.65693366527557,-0.74271041154861,-0.06012941151857,0.9226331905442837,0.35330526682795305,0.1826041815232255
371,269.485366,1.62458276748657,-0.71555918455124,-0.18236054480076,0.9209485929839468,0.35140497343880817,0.18108214650835303
372,269.493699,1.49192655086517,-0.69732189178467,-0.11491825431585,0.9235648719631897,0.3493259391006163,0.18231284861661937
373,269.502032,1.37965953350067,-0.64435166120529,-0.16473795473576,0.9210897951709979,0.3496615497433408,0.17806051945199797
374,269.510365,1.29870569705963,-0.74666774272919,-0.23636814951897,0.9228612938705755,0.3483770331557918,0.18158659643056427
375,269.518698,1.17232501506805,-0.70583862066269,-0.25611671805382,0.9227532756571867,0.34817632363767037,0.18338359132104998
376,269.52703099999997,1.00186240673065,-0.57128709554672,-0.28354960680008,0.921484694188955,0.34789832270875304,0.1831639056303061
377,269.535364,0.69638705253601,-0.63954895734787,-0.36820462346077,0.9222634957761183,0.3489886741248929,0.18084428748305917
378,269.543697,0.65922075510025,-0.65320134162903,-0.41287583112717,0.9222335231547448,0.34879526313470305,0.18300916467394182
379,269.55203,0.40200260281563,-0.71452182531357,-0.37194427847862,0.9247246567083865,0.34926309877512446,0.18142455694626836
380,269.560363,0.24875263869762,-0.75660610198975,-0.32919412851334,0.924364693310796,0.34966159840019384,0.1809136234984102
381,269.568696,0.32077986001968,-0.75832217931747,-0.30547535419464,0.9237575531005857,0.35230013788962855,0.18200627395084898
382,269.577029,0.15546560287476,-0.78214341402054,-0.45513930916786,0.9211162644989632,0.35056012017386323,0.18218438236080917
383,269.585362,0.27403390407562,-0.78493541479111,-0.39084765315056,0.9195162325489276,0.3532562937055316,0.18445940650239284
384,269.59369499999997,0.24214416742325,-0.77842932939529,-0.34422972798347,0.9206687187661927,0.3533920463250612,0.1813274865247765
385,269.60202799999996,0.26479995250702,-0.65989953279495,-0.28822419047356,0.9211780587021183,0.3520833472816316,0.18257045015996834
386,269.610361,0.33281856775284,-0.67072147130966,-0.34996730089188,0.9213643171349346,0.35475618985234486,0.18199021718939998
387,269.618694,0.44503456354141,-0.5908819437027,-0.33137136697769,0.9196387505044744,0.35499923083246937,0.18085741266912345
388,269.627027,0.58807718753815,-0.61860936880112,-0.24142695963383,0.9196862395928826,0.35639332265269996,0.18388864945392244
389,269.63536,0.78492259979248,-0.53930771350861,-0.32254722714424,0.9195279101936182,0.35657724555657855,0.18309015400555714
390,269.643693,0.87608367204666,-0.41241478919983,-0.31852579116821,0.9188680259548887,0.35335993280216116,0.18032755170549694
391,269.652026,0.97427588701248,-0.54989922046661,-0.29879009723663,0.9201512044789836,0.352882584747003,0.18462801466182754
392,269.66035899999997,0.86692667007446,-0.42277580499649,-0.32261130213737,0.9215284853565449,0.35442045756748775,0.18508126541059797
393,269.66869199999996,0.90739715099335,-0.39490750432014,-0.20422229170799,0.9211839948381694,0.3538729706589061,0.1834711128351643
394,269.677025,0.95322090387344,-0.32810553908348,-0.20517002046108,0.9194920987498999,0.3514907068135785,0.18322371706670612
395,269.685358,0.82573890686035,-0.35295134782791,-0.20686055719852,0.9210351048683632,0.34961199273868465,0.18343173727697243
396,269.693691,0.60366344451904,-0.34132248163223,-0.20209632813931,0.920721268167301,0.348835380709901,0.1835039927034959
397,269.702024,0.57890731096268,-0.28626468777657,-0.28922310471535,0.923093387058803,0.3496346181752734,0.1815544829076653
398,269.710357,0.28412586450577,-0.2781577706337,-0.2125469148159,0.920378918550452,0.34813323799444695,0.18117567714379795
399,269.71869,0.16240705549717,-0.24921369552612,-0.30083918571472,0.9204123944652325,0.3474105864155051,0.18326969779267652
400,269.727023,-0.0710923075676,-0.14159548282623,-0.27229207754135,0.923183888805156,0.34505605697631836,0.1794173887797765
401,269.73535599999997,-0.37139359116554,-0.32450672984123,-0.41445112228394,0.9216985897142062,0.3459122229595571,0.1814479243998622
402,269.74368899999996,-0.48321253061295,-0.22836369276047,-0.37012565135956,0.9218569191134703,0.34701213544728776,0.18311934811728367
403,269.752022,-0.78241240978241,-0.10554346442223,-0.44704526662827,0.9220554390732122,0.3463077788450275,0.18158224164223163
404,269.760355,-0.86786144971848,0.01022007875144,-0.48723393678665,0.9216335841587611,0.3473449969778255,0.18271059406046938
405,269.768688,-0.92613387107849,-0.09291563183069,-0.53920525312424,0.9211759178005918,0.3496930063987265,0.18397185267234284
406,269.777021,-1.11000561714172,-0.05840044468641,-0.61746954917908,0.9211854545437561,0.3500192992541255,0.18461047386636528
407,269.785354,-1.31730163097382,-0.09864040464163,-0.5575322508812,0.9190352109013774,0.3517818694212,0.1825179250872867
408,269.793687,-1.32519090175629,-0.16444340348244,-0.61831486225128,0.9212963921683173,0.3503112160429663,0.18559218669424285
409,269.80201999999997,-1.21730375289917,-0.02492265030742,-0.55937641859055,0.9174133806812519,0.3518125718953653,0.18184935560031834
410,269.81035299999996,-1.14297115802765,-0.08760067075491,-0.60217779874802,0.9227722518298092,0.35308256441233055,0.18459736084451528
411,269.818686,-0.80902564525604,-0.11458526551723,-0.54322665929794,0.9215424012164684,0.35765017781938774,0.18314124370107857
412,269.827019,-0.57480901479721,-0.27882373332977,-0.60108917951584,0.9214386648061326,0.35658089482054384,0.1838353945284469
413,269.835352,-0.37147045135498,-0.32911729812622,-0.45438373088837,0.9211358245538203,0.3588019341838602,0.18681692833803162
414,269.843685,-0.0493458211422,-0.47588688135147,-0.644799888134,0.9219963696538183,0.3587829580112377,0.18398571987541326
415,269.852018,0.39281991124153,-0.63705158233643,-0.66011726856232,0.9246326952564469,0.36157257702885814,0.1849900459756653
416,269.860351,0.87471336126328,-0.77712309360504,-0.51277130842209,0.9214504397645285,0.35903621693046733,0.1867001518911245
417,269.868684,1.09082055091858,-0.67674088478088,-0.60336893796921,0.9213927327370153,0.35723559710444286,0.18079466965733776
418,269.87701699999997,1.29455626010895,-0.78905934095383,-0.56172013282776,0.9208314272822163,0.3545518310702581,0.18049833725909795
419,269.88534999999996,1.38832986354828,-0.83662492036819,-0.62539714574814,0.9235743113926478,0.3580944878714428,0.18471717834472653
420,269.893683,1.43785500526428,-0.87283062934875,-0.64141887426376,0.9268088243445571,0.3589756148202082,0.1807776032661908
421,269.902016,1.73441684246063,-1.11749804019928,-0.68089044094086,0.925407215040557,0.36003166315506935,0.1804810397479
422,269.910349,1.8977587223053,-1.16001749038696,-0.76439273357391,0.9269296879671061,0.3608885833195275,0.17806545812256527
423,269.918682,2.10002160072327,-1.41407227516174,-0.80631053447723,0.9273974749506734,0.3601111441242449,0.17841413313028773
424,269.927015,2.40129613876343,-1.49760031700134,-0.98958045244217,0.9277545189370917,0.3619355814797541,0.17938318301220305
425,269.935348,3.00627827644348,-1.46586418151855,-1.06171000003815,0.9281448442108775,0.36136600435996524,0.17927445927444796
426,269.94368099999997,3.53872132301331,-1.58514952659607,-1.24677276611328,0.9273964044999101,0.3625250835807959,0.18265411561849182
427,269.95201399999996,4.24754476547241,-1.75246214866638,-1.32533180713654,0.9274645240939398,0.36125762122017957,0.18181604998452347
428,269.960347,4.74812316894531,-1.58968341350555,-1.32610011100769,0.9278003536925019,0.360424883511602,0.18072640409274998
429,269.96868,5.41153287887573,-1.48451149463654,-1.2669825553894,0.9250873448897377,0.3590550471325306,0.1814082447363408
430,269.977013,6.02461004257202,-1.41722297668457,-1.18245565891266,0.9228040734115908,0.3571734379748908,0.17975863145322243
431,269.985346,6.50803995132446,-1.44559073448181,-1.11745953559875,0.9234624006310286,0.3564908309858673,0.17991984377101938
432,269.993679,6.67802858352661,-1.33602583408356,-1.03794014453888,0.9247547266434653,0.3554500852312357,0.1797302888364204
433,270.002012,6.93611764907837,-1.26563787460327,-1.07085430622101,0.9250574695820714,0.35227527423780813,0.1796649791756459
434,270.010345,6.8797779083252,-1.24006199836731,-0.87986171245575,0.9241759047216296,0.34788902924985304,0.18275689105598264
435,270.01867799999997,6.56403112411499,-1.24311006069183,-0.92089575529099,0.923542295183454,0.3449015471400051,0.18160997604837245
436,270.027011,6.21813678741455,-1.2239248752594,-1.11046659946442,0.9253707224008989,0.3442444606703153,0.18196234897691324
437,270.035344,5.8889307975769,-1.33825409412384,-1.08650469779968,0.9253314076637734,0.3433419247062836,0.18323788837510713
438,270.043677,5.77576684951782,-1.3946567773819,-1.1567645072937,0.9241958540313101,0.34447351280523775,0.1832213328809153
439,270.05201,5.46995830535889,-1.45551609992981,-1.12169861793518,0.9254089666872611,0.3440312220125786,0.18636420065042958
440,270.060343,5.48740243911743,-1.60231149196625,-1.23273634910583,0.9258915453541029,0.3438804344255102,0.18388216592827653
441,270.068676,5.32550716400146,-1.52222836017609,-1.3783403635025,0.9276048504576386,0.34293851073907344,0.1835090651804092
442,270.077009,5.35378503799438,-1.37548434734344,-1.41133165359497,0.9305343822557102,0.3446531539060632,0.18628527923506122
443,270.08534199999997,5.32459735870361,-1.61434996128082,-1.47914528846741,0.927013377754056,0.34539164329061733,0.1847003430736306
444,270.09367499999996,5.27124357223511,-1.537353515625,-1.65242552757263,0.926036932030503,0.3426106365359561,0.18475867047601835
445,270.102008,5.11538076400757,-1.56537556648254,-1.48298740386963,0.9237975490336521,0.34350526576139484,0.18674969673156733
446,270.110341,5.19255638122559,-1.54114460945129,-1.520512342453,0.9271850391310091,0.3431951999664306,0.18730292514878877
447,270.118674,5.05188274383545,-1.35713183879852,-1.57353377342224,0.9262788539030111,0.343203179690303,0.18423785968702652
448,270.127007,4.79238510131836,-1.46878433227539,-1.53764820098877,0.926476595353107,0.34226342123381936,0.18331170082092244
449,270.13534,4.69136238098145,-1.5238037109375,-1.54026079177856,0.9215128178499182,0.3411417348044255,0.18599867820739793
450,270.143673,4.65255689620972,-1.55356740951538,-1.50109648704529,0.9246599430940591,0.34220644405909895,0.1838267701012745
451,270.152006,4.37999582290649,-1.35162484645844,-1.50347876548767,0.924493244716099,0.34024815170132344,0.18729900827213164
452,270.16033899999996,4.19818592071533,-1.35769557952881,-1.6018887758255,0.9273824886399877,0.3376347191479745,0.18580085160780918
453,270.168672,3.9546971321106,-1.29422330856323,-1.72985744476318,0.9247041235164724,0.33844906456616425,0.18807555947985
454,270.177005,3.99484753608704,-1.23306930065155,-1.74352264404297,0.9249957726926225,0.3384220843412438,0.18679348789915715
455,270.185338,4.15386056900024,-1.43175899982452,-1.70873856544495,0.9215815213261815,0.34092968823958364,0.18916533917796835
456,270.193671,3.86607193946838,-1.32695829868317,-1.8537278175354,0.9230804443359376,0.3383121685105928,0.1879697551532663
457,270.202004,3.84401822090149,-1.29588830471039,-1.85467529296875,0.925036060566805,0.3344719020687806,0.18801067556653672
458,270.210337,3.57319831848145,-1.07847452163696,-1.80234563350677,0.9257853761011243,0.3365061721023245,0.1899232061541806
459,270.21867,3.22417879104614,-1.03090882301331,-1.65872657299042,0.9244948990490969,0.33848142137332854,0.19125707295476221
460,270.22700299999997,3.07235074043274,-0.97813081741333,-1.67458188533783,0.9224082012565764,0.3378657175570122,0.1915802517715765
461,270.23533599999996,2.84009385108948,-0.96277517080307,-1.73946285247803,0.9206124714442663,0.33749118143198464,0.18852373775170816
462,270.243669,3.05130839347839,-0.80038076639175,-1.78994834423065,0.9196422537978816,0.33960848438496527,0.19260001425840406
463,270.252002,3.07149243354797,-0.64349365234375,-1.6770920753479,0.9207645727663621,0.3376768559825663,0.1915703257735898
464,270.260335,3.15158796310425,-0.68345177173615,-1.59817469120026,0.9212739127022876,0.3375526593655959,0.19622346576379285
465,270.268668,3.44871282577515,-0.61129641532898,-1.62207245826721,0.9192562103271479,0.33792782802971016,0.1916825649689653
466,270.277001,3.21120572090149,-0.47283878922462,-1.5281069278717,0.9194327373893897,0.3344011550046959,0.19470888741162345
467,270.285334,3.3771984577179,-0.19929155707359,-1.63933670520782,0.9206699838443673,0.3343364900472214,0.1934971614759796
468,270.29366699999997,3.5770149230957,-0.48384010791779,-1.60163235664368,0.9213684043105765,0.3392415387289867,0.19163654775035613
469,270.30199999999996,3.53381657600403,-0.3545009791851,-1.34550285339355,0.9214992912448183,0.33747826303754486,0.1947247617098745
470,270.310333,3.3536970615387,-0.18780355155468,-1.46980857849121,0.9228444585994796,0.3346592552807867,0.1935561092532408
471,270.318666,3.3402886390686,-0.39547103643417,-1.39338886737823,0.9217214584350581,0.3381447646082663,0.19535113354118466
472,270.326999,3.25321292877197,-0.60905528068542,-1.34714245796204,0.9195412421713071,0.3368682764014418,0.19583581661691427
473,270.335332,3.10851812362671,-0.36897310614586,-1.34969103336334,0.9243367642772439,0.3340313142659714,0.1973968014425163
474,270.343665,3.09872055053711,-0.44406118988991,-1.18450462818146,0.9240501754137938,0.3333491208601969,0.195876797851251
475,270.351998,2.99319005012512,-0.45369216799736,-1.19218909740448,0.9248954422619877,0.33552705025186325,0.19710246397524486
476,270.360331,2.84319305419922,-0.33079507946968,-1.11772847175598,0.9226400998173927,0.33584514442755203,0.1954819839827867
477,270.36866399999997,2.71273946762085,-0.38179296255112,-0.99793058633804,0.9235582546311979,0.33141788171262143,0.19453861275497752
478,270.37699699999996,2.5575430393219,-0.43622326850891,-0.80979412794113,0.9214008097745937,0.3333340615642316,0.19758586980858672
479,270.38533,2.43211030960083,-0.19711434841156,-0.69383841753006,0.9207839381938081,0.3345207048922173,0.19602645416648978
480,270.393663,2.2397472858429,-0.12739241123199,-0.58623307943344,0.920242873989806,0.32969718076744897,0.19508020002014795
481,270.401996,2.05094456672668,-0.21545413136482,-0.56215560436249,0.9232711791992183,0.32936217833538467,0.19507954315263368
482,270.410329,2.02732849121094,-0.32784941792488,-0.48364794254303,0.917907053110551,0.3337033184207214,0.19656984173521733
483,270.418662,2.22690176963806,-0.32896360754967,-0.30197903513908,0.9199321513273275,0.331448000304553,0.19795513882928978
484,270.426995,2.34891533851624,-0.21927067637444,-0.3450493812561,0.9216532415273234,0.3287827238744622,0.19582969801766528
485,270.43532799999997,2.20247840881348,-0.27065280079842,-0.4130807518959,0.9216008867536275,0.3308214703384714,0.19670963287353468
486,270.44366099999996,2.42537355422974,-0.27959218621254,-0.47150686383247,0.9214906303250061,0.3289457243316031,0.20012769163871327
487,270.451994,2.13877582550049,-0.12247445434332,-0.40601122379303,0.9198468072073795,0.3268365714014796,0.19457840189641834
488,270.460327,2.25158095359802,0.01334501709789,-0.43864381313324,0.9220917370854591,0.33140968303291124,0.19789895232842855
489,270.46866,2.46853351593018,0.13209262490273,-0.51873952150345,0.9212973653053754,0.32997771185271635,0.19564041069575713
490,270.476993,2.38971877098083,0.31054699420929,-0.45834112167358,0.9227710840653398,0.3252382910981469,0.19540603063544487
491,270.485326,2.69332408905029,0.32473728060722,-0.43872061371803,0.9250338223515724,0.33040898186819895,0.19752344306634387
492,270.493659,2.90054321289062,0.68420749902725,-0.46694749593735,0.9241669518606999,0.33248329649166225,0.19695351318437243
493,270.501992,3.36083126068115,0.76578885316849,-0.46866369247437,0.9244708625637754,0.3315446084859418,0.19431622660889897
494,270.51032499999997,3.49435782432556,1.01557886600494,-0.53646451234818,0.9275810085997285,0.33045620334391734,0.19901885061847957
495,270.51865799999996,3.94245314598083,1.17333686351776,-0.53654134273529,0.9271012520303529,0.33071941258956017,0.19880975995744998
496,270.526991,4.46944093704224,1.28798627853394,-0.66174381971359,0.9263921270565112,0.331785289608702,0.1995063192990357
497,270.535324,4.53193950653076,1.3413919210434,-0.59007513523102,0.9251031097100703,0.32694308125242855,0.19905331183452957
498,270.543657,5.02676820755005,1.48658633232117,-0.53550398349762,0.923358858848105,0.32498077470429076,0.2004324781651398
499,270.55199,5.35970211029053,1.65479493141174,-0.32872030138969,0.9245897799122091,0.32644035864849485,0.20219003667636834
500,270.560323,5.14191675186157,1.53091156482697,-0.34945496916771,0.9269463286107897,0.3206609463205143,0.20213084561484182
501,270.568656,5.00520133972168,1.88762843608856,-0.61244922876358,0.922931943620954,0.319335193050151,0.2022481937797704
502,270.57698899999997,4.87287712097168,1.93670523166656,-0.53102147579193,0.9275513279194734,0.3203725328250806,0.20254828491989488
503,270.58532199999996,4.43493843078613,1.93907451629639,-0.80958914756775,0.926307366818798,0.3140588925809275,0.20262429908830304
504,270.593655,3.53493070602417,1.99934470653534,-0.52253031730652,0.924382696346361,0.3123083649849408,0.20416933663037343
505,270.601988,3.3448224067688,2.47310590744019,-0.84757512807846,0.9246058366736591,0.31739743388428976,0.20273243894382448
506,270.610321,3.06611347198486,2.47630739212036,-0.94816207885742,0.9272682423494296,0.31478310117916225,0.20154859338487854
507,270.618654,2.76276397705078,2.72691679000854,-0.955462038517,0.9199412988156682,0.31378704674389896,0.2044486999511714
508,270.626987,2.8696653842926,3.17707467079163,-1.35928356647491,0.922155866817552,0.3146057469504224,0.20327898920798773
509,270.63532,2.64936995506287,3.15203642845154,-1.20164060592651,0.9181718437039121,0.31252282006399995,0.20294143229114794
510,270.643653,2.55923366546631,3.5031566619873,-1.63636553287506,0.9186085876153437,0.3108552037453163,0.2058091942144898
511,270.65198599999997,2.01911878585815,3.45127487182617,-1.138463139534,0.9186883848540632,0.3062707550671632,0.20431316628748059
512,270.660319,1.00484645366669,3.61172223091125,-0.8646724820137,0.9115574311236949,0.3003401415688653,0.19996116355973875
513,270.668652,0.60659635066986,4.22940969467163,-1.02342963218689,0.9175262645799286,0.31158476459736734,0.19938832643080714
514,270.676985,0.39684137701988,4.43335056304932,-1.11676788330078,0.9239804014867663,0.3089214344413908,0.19969805162780102
515,270.685318,0.4751184284687,5.07990503311157,-1.24309730529785,0.9245216603181796,0.3140217917306081,0.19726089068821528
516,270.693651,0.01379326358438,5.34476852416992,-1.26705932617188,0.9292728073742927,0.31289832932608463,0.19971196748772446
517,270.701984,-1.01591181755066,5.23670244216919,-1.58214008808136,0.920930979203205,0.30839956536584995,0.20196218879855407
518,270.710317,-1.30975842475891,5.8723201751709,-1.75467765331268,0.9242147328902265,0.3183826621697877,0.20155631766027346
519,270.71864999999997,-1.7135922908783,5.98712253570557,-1.78876996040344,0.9256459255607765,0.3239169412729693,0.2026584683632367
520,270.72698299999996,-1.81120800971985,5.83768892288208,-1.78439009189606,0.9210951474248142,0.3205796893762081,0.20256080189529693
521,270.735316,-1.18473529815674,6.37799596786499,-1.28813993930817,0.9219723331684968,0.33122347325694795,0.20597041869650098
522,270.743649,-0.83184784650803,6.70780372619629,-1.32077240943909,0.9188399022939255,0.33163749441808565,0.2074588561544612
523,270.751982,0.01328098028898,6.85111618041992,-0.93535494804382,0.9201302820322468,0.3322750208329183,0.20808071506266734
524,270.760315,0.18858481943607,6.80426836013794,-0.71947830915451,0.9132127372585999,0.3298301356179377,0.2096857829969755
525,270.768648,0.62021028995514,7.17667293548584,-0.23916009068489,0.9111065767249286,0.3345934468872694,0.2063691129489816
526,270.776981,1.21762406826019,7.87326669692993,-0.21962930262089,0.9148115041304611,0.33534264077945614,0.20857064091429386
527,270.78531399999997,1.63167810440063,7.38475131988525,0.22507229447365,0.9109934981988397,0.329468517887349,0.2085651913467714
528,270.79364699999996,1.5590488910675,7.1202712059021,0.78713834285736,0.9000189450322367,0.32848737677749285,0.21206945789103573
529,270.80198,1.76241290569305,7.94936418533325,0.72224456071854,0.9119563200035876,0.3287148232362704,0.20432569542709692
530,270.810313,1.84118974208832,7.38688993453979,1.1822122335434,0.9092428246322939,0.333209670319849,0.20575151151540305
531,270.818646,2.21846222877502,7.66483068466187,1.49191403388977,0.910385871420101,0.3353655338287357,0.20602863662096935
532,270.826979,2.76019048690796,7.08795976638794,1.84130525588989,0.9066626490378867,0.3351183570161153,0.20068707514782347
533,270.835312,3.49795699119568,7.81514692306519,1.66810142993927,0.9153318405151366,0.3362545188592408,0.20043983751413774
534,270.843645,3.98590755462646,7.47309350967407,1.82030117511749,0.9071115571625377,0.33296453709505,0.2011363117062316
535,270.851978,4.16093015670776,7.43961620330811,1.38816344738007,0.9128930617351917,0.3323559615076806,0.19697815788035508
536,270.86031099999997,4.2581615447998,6.97038888931274,1.80198705196381,0.9083711857698398,0.33112214536082957,0.2005380148790316
537,270.86864399999996,3.68765544891357,7.36390018463135,0.83010601997375,0.9116445268903459,0.32927009524131323,0.1969040899860612
538,270.876977,4.78562355041504,7.61821317672729,1.69109046459198,0.9127198433389468,0.33542671982122957,0.18943977599241327
539,270.88531,6.64916133880615,9.01195907592773,3.01890683174133,0.9368419647216795,0.3519739910047877,0.18918960678334182
540,270.893643,5.56747245788574,6.53908443450928,3.44784331321716,0.9019498435818418,0.31780454577231937,0.1946361089239316
541,270.901976,5.7795581817627,9.59883308410645,1.77636027336121,0.9053783027493223,0.32615858681347853,0.1885804229853102
542,270.910309,6.79613637924194,8.46056270599365,3.13842296600342,0.9372863964158663,0.3529820150258592,0.18508218989080305
543,270.918642,7.05044651031494,8.30540370941162,3.74208617210388,0.9135809723211795,0.33961099021288776,0.19305050373077345
544,270.92697499999997,6.23065042495728,8.66363143920898,2.03465414047241,0.9164483206612725,0.3103756174749255,0.1819267078321806
545,270.93530799999996,8.79322624206543,11.11481094360352,4.07590436935425,0.9397082426110092,0.34759290364323875,0.1813895240121959
546,270.943641,8.48092460632324,9.1567440032959,3.45635986328125,0.928037117938606,0.3417713301522387,0.18456345918227243
547,270.951974,9.92444038391113,10.46732139587402,3.10319018363953,0.9062015767000162,0.32524232961693567,0.18537652735807447
548,270.960307,10.30937480926514,11.29456233978271,4.2511191368103,0.9348586140846724,0.3311792198492561,0.17574120541008162
549,270.96864,9.87989902496338,10.42961883544922,5.05783939361572,0.911183065297652,0.3295901843479704,0.1892539311428459
550,270.976973,9.22791290283203,10.56673049926758,3.95307064056396,0.9132278208829918,0.3177488093473469,0.1754207635412408
551,270.985306,10.69903087615967,11.364577293396,5.28963470458984,0.9183445755316284,0.33729910850524897,0.17932638830068162
552,270.993639,10.22617816925049,10.64347171783447,4.6684513092041,0.9162677064233898,0.32379756168443363,0.17815613016790305
553,271.00197199999997,10.58271598815918,10.98095321655273,6.18464851379395,0.9203126479168325,0.32337363885373466,0.17451814242771732
554,271.01030499999996,10.30505847930908,11.68129920959473,5.86354827880859,0.9251385318989652,0.32460587365286736,0.17284536848262858
555,271.018638,10.3234224319458,10.27361583709717,5.77161836624146,0.9125004982461734,0.320449799907451,0.17181801552675202
556,271.026971,12.12448883056641,12.84818077087402,6.86929178237915,0.9245867631873306,0.3392148261167561,0.17550442899976426
557,271.035304,11.4014253616333,11.78759765625,6.01843786239624,0.9296608944328457,0.3162618802518265,0.16685120913447143
558,271.043637,12.00181007385254,12.07208251953125,6.41513872146606,0.913864544459752,0.3182963205843551,0.16943757631340817
559,271.05197,11.98701667785645,13.33116340637207,6.50749063491821,0.9273197212997744,0.32024551411064284,0.16513913261647142
560,271.060303,11.75454044342041,12.19903755187988,6.73010301589966,0.9251711319903937,0.3174430010270102,0.16355015793625205
561,271.06863599999997,10.55799674987793,11.29055213928223,6.96196317672729,0.9055387730501132,0.31592451796239696,0.16291940698818264
562,271.07696899999996,10.68484020233154,12.39634418487549,7.09751415252686,0.9248703353259029,0.3202876996020877,0.16196881021772142
563,271.085302,10.13326072692871,12.42518520355225,6.9965672492981,0.9327735706251489,0.3179855492650245,0.15556532509472856
564,271.093635,10.73144435882568,13.24526500701904,7.15500497817993,0.9428983805130938,0.3243585022128357,0.15620129449026937
565,271.101968,10.64465141296387,12.836501121521,7.30770492553711,0.9315896520809255,0.32046668383539895,0.15361791970778468
566,271.110301,10.79682540893555,13.03229522705078,6.9979510307312,0.9172474608129387,0.3198610763160551,0.14721416697210202
567,271.118634,9.68260669708252,12.50943374633789,7.39922523498535,0.9337261744907928,0.3127632579024959,0.14792195388248977
568,271.126967,9.81860542297363,13.46265411376953,7.10977125167847,0.9313309922510264,0.32112245657006117,0.14437896864754793
569,271.1353,10.54604911804199,13.3076868057251,7.56214380264282,0.9438751181777641,0.3355007512228826,0.13661947785591633
570,271.14363299999997,11.21222400665283,13.59830760955811,6.67591667175293,0.9437296341876592,0.3268144325334194,0.13570154199794895
571,271.151966,11.85037899017334,13.62241077423096,7.03856325149536,0.9426429320354847,0.31749718043268976,0.13150443836134285
572,271.160299,11.79055595397949,14.6087007522583,6.60438919067383,0.9460672067136183,0.31945649458437547,0.1300481144262816
573,271.168632,12.71425819396973,14.88484668731689,6.69229745864868,0.9552389261673907,0.32275336129324794,0.13443270508123875
574,271.176965,11.55093383789062,13.65308094024658,6.75571775436401,0.9330179253403019,0.30659463940834486,0.1338744285155316
575,271.185298,11.99773788452148,15.47150421142578,6.29444408416748,0.9307157750032388,0.31530497025470305,0.12331694972758367
576,271.193631,12.6868371963501,16.1922607421875,6.92350435256958,0.9545725219103754,0.3297845684752173,0.12687973830164692
577,271.201964,13.13875007629395,15.02381706237793,6.58421802520752,0.9327111925397602,0.31940229085026933,0.12062271030581734
578,271.21029699999997,13.11096000671387,16.37307357788086,6.18537902832031,0.9321452160270846,0.30880069246097447,0.11891721462716835
579,271.21862999999996,12.82246494293213,15.93806552886963,5.56128740310669,0.9326822903691508,0.3064551888679969,0.11490211194875306
580,271.226963,13.83731555938721,16.74692535400391,5.94010972976685,0.9293081322494816,0.3269539560590469,0.11286010547560102
581,271.235296,15.02584075927734,17.15460205078125,6.02117919921875,0.9378386516960295,0.3269768491083265,0.11026405558294183
582,271.243629,16.29876708984375,17.05793380737305,5.29414463043213,0.9310206588433715,0.31876452115117243,0.11248390285336225
583,271.251962,17.01038551330566,18.0642204284668,5.11896944046021,0.9376350714235887,0.31972678340211225,0.11136835935164488
584,271.260295,18.23072242736816,18.23094367980957,4.53296613693237,0.9446761072898398,0.3266913793524918,0.1071193631814449
585,271.268628,19.39297294616699,18.41693115234375,3.57204842567444,0.9426368012720224,0.324949682975302,0.10074173309365102
586,271.276961,20.61966514587402,18.49236297607422,2.98904204368591,0.9452564862309673,0.3235668065596602,0.1049977905896245
587,271.28529399999996,21.56575584411621,18.82061004638672,2.28964519500732,0.9447427671782825,0.31959103078258266,0.09573681013924694
588,271.293627,23.47171401977539,19.65479469299316,1.71557903289795,0.9443435863572723,0.3241437551926592,0.0943947568231704
589,271.30196,24.27986717224121,19.32331657409668,0.86869460344315,0.9411784580775673,0.3222282322085632,0.09766972794824694
590,271.310293,25.55968856811523,19.7982349395752,0.13241291046143,0.9417437533943019,0.3218492196530714,0.09544014930725102
591,271.318626,26.16687202453613,20.01203536987305,-0.72588235139847,0.9453949636342571,0.32047420131916937,0.09013763495853978
592,271.326959,27.77442932128906,20.04682350158691,-1.62012767791748,0.9417636053902765,0.32623551329787853,0.08846673430228673
593,271.335292,29.23936080932617,20.19092750549316,-2.58063697814941,0.9435209936025193,0.32749390115543264,0.08626828388291938
594,271.343625,31.43962478637695,20.55378150939941,-3.55807709693909,0.9476183871833643,0.33204737974672854,0.07973178917047959
595,271.35195799999997,33.60457992553711,20.66915702819824,-4.6399998664856,0.9534464077073703,0.33314743820501835,0.07731158514412041
596,271.36029099999996,35.61458587646484,21.37759590148926,-5.87194490432739,0.9607824014157662,0.33458979762330304,0.07718462116864284
597,271.368624,37.26096725463867,21.53128242492676,-7.47375774383545,0.9663279202519632,0.3353757517678398,0.07476119362578061
598,271.376957,39.42462158203125,21.74842262268066,-9.07565307617188,0.9711493278036315,0.3427925645088663,0.07688036986759693
599,271.38529,41.51435470581055,21.84272575378418,-10.73306560516357,0.9744488463109856,0.3482531528083643,0.07816082969003775
600,271.393623,43.69358825683594,22.00257301330566,-12.06896781921387,0.9767291983779591,0.34600379515667345,0.07275799099279898
601,271.401956,45.7166862487793,22.08039093017578,-13.5601053237915,0.9731291751472315,0.34067363155131425,0.07282338580306734
602,271.410289,46.91528701782227,21.84031295776367,-14.80073356628418,0.9700811152555499,0.33911079776530406,0.07327209930030715
603,271.41862199999997,47.47538375854492,21.7199821472168,-15.84236907958984,0.9666953768048969,0.33341760538062243,0.07458983635415815
604,271.42695499999996,47.45107269287109,21.26115226745605,-16.75431632995605,0.9608394272473396,0.3311530667908337,0.07682376978348673
605,271.435288,46.72114944458008,20.88423347473145,-17.54415512084961,0.9602272267244296,0.33785603484328874,0.07952892658661836
606,271.443621,45.90041351318359,20.33389854431152,-18.10058975219727,0.9607099027049786,0.34091472625732444,0.08213469568563979
607,271.451954,45.49064254760742,19.59998321533203,-18.91118812561035,0.9635734558105468,0.3430513459808969,0.08720969059029388
608,271.460287,45.02602386474609,18.73286247253418,-19.35234451293945,0.9629551245241744,0.3478032472182296,0.08935428395563265
609,271.46862,44.56145477294922,17.68574905395508,-19.54670143127441,0.9627750941685266,0.3497966698237826,0.08869604188568775
610,271.476953,44.55343627929688,16.51025581359863,-19.90740013122559,0.9649569647652765,0.3505609230119357,0.09356179407664693
611,271.485286,44.6124267578125,15.14063262939453,-20.04543685913086,0.9682739997396663,0.35873361996241937,0.09599671071889489
612,271.49361899999997,44.20153427124023,13.84889221191406,-19.83036613464355,0.9714300778447367,0.35620689392089794,0.09809441712437857
613,271.50195199999996,42.6723747253418,12.54683780670166,-19.42875480651855,0.9716414432136378,0.3448301188799796,0.09317500858890816
614,271.510285,40.65761566162109,10.89319133758545,-19.01663398742676,0.970660229118503,0.34317228258872545,0.0954136982256051
615,271.518618,38.02842712402344,9.05182933807373,-18.22204780578613,0.9744187763759071,0.35057515514140203,0.0977119803428653
616,271.526951,35.3310546875,7.20654964447021,-17.1229362487793,0.975017255666305,0.35765441096558875,0.10155953314839591
617,271.535284,32.56493759155273,5.20973634719849,-16.05998992919922,0.9726985619992622,0.35649102561327856,0.1057872966844204
618,271.543617,29.55113220214844,3.23884606361389,-14.71761989593506,0.9719736722050877,0.34977657454354383,0.10797644148067549
619,271.55195,26.14472389221191,1.43766403198242,-13.63716888427734,0.9713596227217693,0.3477442994409673,0.10588723786023163
620,271.56028299999997,22.66424560546875,-0.18612594902515,-12.4431209564209,0.9751537867954795,0.35216156317263264,0.09987295890341019
621,271.56861599999996,19.75914764404297,-1.50013661384583,-11.40277004241943,0.9849044254847938,0.3602115232117326,0.09314823515561121
622,271.576949,17.9248104095459,-2.6284441947937,-10.46149826049805,1.00097403234365,0.37529188759472853,0.08556296022570815
623,271.585282,16.69965553283691,-3.43360209465027,-9.68730735778809,1.0243962735545875,0.3872073183254316,0.08368331558850306
624,271.593615,16.38559913635254,-4.21916484832764,-9.17340660095215,1.0459210921306998,0.39759468059150505,0.08346935316007958
625,271.601948,16.38224220275879,-4.88864469528198,-8.77323627471924,1.0590790729133448,0.39868023930763674,0.0856406287271153
626,271.610281,15.93555545806885,-5.76083517074585,-8.38536071777344,1.0494192279115009,0.39015100926768975,0.08828089553482653
627,271.618614,15.1282958984375,-6.40774774551392,-8.15416526794434,1.019293921334403,0.37471652030944796,0.0886933900872051
628,271.626947,13.42964744567871,-6.88223886489868,-7.49865818023682,0.9803526742117745,0.3623943912739653,0.08436180499135204
629,271.63527999999997,10.87739276885986,-6.94932174682617,-6.39058589935303,0.9471580933551397,0.35053248308142854,0.08378338448855306
630,271.64361299999996,8.21475601196289,-6.9378867149353,-5.28352642059326,0.926283816902005,0.34548107458620614,0.07540576312006735
631,271.651946,5.75245761871338,-6.76857423782349,-3.91613459587097,0.9132969136140786,0.354567376934752,0.07162683472341429
632,271.660279,4.2763991355896,-6.76015996932983,-2.25070977210999,0.9079042746096244,0.36668560942825,0.07299033354739795
633,271.668612,4.07782554626465,-6.76967716217041,-0.53116250038147,0.9083322602875377,0.3740786776250724,0.07762699711079489
634,271.676945,4.9031925201416,-6.93032884597778,1.3196839094162,0.9153315485740194,0.3835231187392255,0.07937926418927245
635,271.685278,6.56795120239258,-7.22577571868896,3.00075912475586,0.9199512248136561,0.3854723609223653,0.07867061361974591
636,271.693611,8.73961544036865,-7.36436223983765,4.4079155921936,0.9257182296441531,0.3873409057150081,0.0747222559792653
637,271.70194399999997,10.8903923034668,-7.47726964950562,5.62336206436157,0.9321360685387438,0.38763384429775916,0.07370260905246326
638,271.71027699999996,13.11155891418457,-7.55649614334106,6.72882318496704,0.9419717594068877,0.38687642739743566,0.07470164980207142
639,271.71861,14.95591163635254,-7.69952535629272,7.57906246185303,0.954999145196408,0.3876102943809663,0.07534728974712142
640,271.726943,16.37533760070801,-7.74917936325073,8.18979454040527,0.9652962003435407,0.3778936181749612,0.0799131332611551
641,271.735276,16.94338798522949,-7.90542650222778,8.7728271484375,0.9776368433115428,0.37326756788759796,0.08863944788368366
642,271.743609,17.17783355712891,-8.03085994720459,9.38915729522705,0.9868901116507397,0.36450210882692957,0.09552555424826531
643,271.751942,16.6004638671875,-8.30585384368896,10.00054359436035,0.9902330320708601,0.3611646379743306,0.09618190478305408
644,271.760275,15.75863838195801,-8.51393127441406,10.71647453308105,0.9909572406690949,0.3595262400958,0.09646123161121326
645,271.768608,14.73798561096191,-8.95618629455566,11.66732692718506,0.9901759089255815,0.35643112902738566,0.09496693708458774
646,271.77694099999997,13.66124248504639,-9.37902641296387,12.65390968322754,0.9867681775774275,0.35569964622964695,0.09088800269730203
647,271.785274,12.28801345825195,-9.74692630767822,13.79625701904297,0.9801029672428051,0.35120353406789384,0.08747762563277243
648,271.793607,10.77677059173584,-10.09102535247803,14.91057586669922,0.9747843839684305,0.3493934018271306,0.0918356557281653
649,271.80194,9.20572185516357,-10.63258934020996,16.14979553222656,0.9722477076004958,0.34366181918552957,0.09376619543348061
650,271.810273,7.78966426849365,-10.89956569671631,17.43440055847168,0.9674350582823459,0.3450364239361816,0.09221730183581939
651,271.818606,6.00055885314941,-11.55482959747314,18.80258560180664,0.9606530715008172,0.3431186870652806,0.09639379321312448
652,271.826939,4.65724611282349,-11.82354831695557,20.19602584838867,0.9570406894294581,0.33863422821979183,0.09654017735500714
653,271.835272,3.40711784362793,-12.32297706604004,21.11734771728516,0.9524152716811826,0.33547705533553157,0.09575818266187346
654,271.84360499999997,2.16564607620239,-12.5368824005127,22.02409362792969,0.9493480409894672,0.3340008064192173,0.09564116901280918
655,271.85193799999996,1.05462825298309,-12.77330207824707,22.81677627563477,0.9450818081291356,0.3303582327706469,0.09663616516152244
656,271.860271,0.17002739012241,-12.90381908416748,23.4793529510498,0.9412718792350928,0.33002994498428057,0.0921605192885102
657,271.868604,-0.74925523996353,-12.94036960601807,24.13249206542969,0.9364635117199959,0.3337852565609683,0.0936334656209357
658,271.876937,-1.06880581378937,-12.70847320556641,24.58185577392578,0.9354305267333978,0.33257168166491424,0.09116734168967448
659,271.88527,-1.3450300693512,-12.68132305145264,24.85088729858398,0.9309441702706469,0.33126719143925915,0.09246070166023367
660,271.893603,-1.42105305194855,-12.56313800811768,25.09403800964355,0.9329607048813173,0.32760179772668974,0.09348059795340713
661,271.901936,-1.64955806732178,-12.28724765777588,25.32167625427246,0.9316122288606602,0.3251452835238714,0.09065532562684081
662,271.91026899999997,-1.60924088954926,-11.97541809082031,25.38975524902344,0.93207699911935,0.3278947849662939,0.09169653970368061
663,271.91860199999996,-1.42954421043396,-11.56775379180908,25.30229568481445,0.9315223109965417,0.328483703185101,0.09123063817316121
664,271.926935,-0.89311772584915,-11.16721153259277,25.11860275268555,0.9340485747979611,0.32960020765966325,0.09482614239867856
665,271.935268,-0.31451746821404,-10.64706420898438,24.77529907226562,0.9354286777729887,0.3270784689455612,0.09327759548109388
666,271.943601,0.24453926086426,-10.1810245513916,24.32485580444336,0.9340855540061479,0.32429254784876016,0.09435748567386529
667,271.951934,0.77477979660034,-9.66379451751709,23.83159828186035,0.9369712946366284,0.325598084196752,0.0948919690385153
668,271.960267,1.34168708324432,-9.09573459625244,23.13395690917969,0.9384314867914939,0.32523838841185304,0.09429305791854897
669,271.9686,1.9138069152832,-8.70222187042236,22.43289184570312,0.938285418919154,0.32568890221264896,0.09493030455647652
670,271.976933,2.3329713344574,-8.20173263549805,21.7075366973877,0.9384980493662306,0.3227976633577928,0.09762115624486224
671,271.98526599999997,2.81211113929749,-7.8857045173645,21.09768676757812,0.935271710765605,0.32072157275919994,0.10087837978285204
672,271.99359899999996,2.9366090297699,-7.36843729019165,20.39102554321289,0.9363457621360316,0.3180362010488704,0.10560951670821836
673,272.001932,2.78527998924255,-7.17200183868408,19.85988807678223,0.9344252761529418,0.31537289522132145,0.1013117298787949
674,272.010265,2.5416886806488,-6.80046653747559,19.36468887329102,0.9278821945190427,0.31397233203965813,0.10202454669135
675,272.018598,2.37873077392578,-6.53899669647217,18.87519836425781,0.9281261599793723,0.3121715175862214,0.1026670178588551
676,272.026931,2.10079026222229,-6.37654972076416,18.49674606323242,0.9273228353383591,0.3113641787548459,0.10307988341973774
677,272.035264,1.53700816631317,-5.99780511856079,18.01728820800781,0.9273404491191009,0.3124700760354806,0.10115746940885306
678,272.043597,1.23114860057831,-5.63541507720947,17.57613372802734,0.9284887508470182,0.3129574474023316,0.10389239204173162
679,272.05192999999997,0.93658471107483,-5.48403453826904,17.4210376739502,0.9275342007072602,0.31239825852063263,0.10863557153818572
680,272.06026299999996,0.63665479421616,-5.05844116210938,17.03709411621094,0.9286057219213366,0.3112681544556908,0.1070451006597398
681,272.068596,0.4992855489254,-4.66854095458984,16.51046371459961,0.9289186827990469,0.30805539111701835,0.10821601566003265
682,272.076929,-0.01508678961545,-4.3404483795166,16.09794807434082,0.9307649184246448,0.31009000174853263,0.10786597826042958
683,272.085262,-0.09701393544674,-3.93488478660583,15.67765617370605,0.932970630879305,0.30926877138566017,0.10580444822506019
684,272.093595,-0.31738603115082,-3.57629871368408,15.0793981552124,0.9339155469621928,0.31259602429915406,0.1094916037150796
685,272.101928,-0.31077760457993,-3.20548152923584,14.57784748077393,0.9327792148200836,0.30970714530166327,0.10717271542062551
686,272.110261,-0.43536528944969,-2.83489489555359,13.78470134735107,0.9323703026284978,0.3085241998944959,0.11133021237898877
687,272.118594,-0.76619875431061,-2.44218969345093,13.06305694580078,0.9309835823214785,0.3065680241098214,0.10912928046012449
688,272.12692699999997,-1.0364545583725,-1.98911201953888,12.35314559936523,0.9303609692320529,0.3046210931271918,0.10785113792030203
689,272.13525999999996,-1.38140141963959,-1.62254667282104,11.53715133666992,0.930789538792201,0.3087374872090867,0.1103196095447153
690,272.143593,-1.66180050373077,-1.24384021759033,10.87750816345215,0.9322201475805163,0.3078671864100867,0.1100496856533755
691,272.151926,-1.86210381984711,-1.01285088062286,10.19173812866211,0.9323091896212826,0.3068965308520255,0.11207761813183265
692,272.160259,-1.93787050247192,-0.68585956096649,9.50737571716309,0.9305917000284,0.30302670537208976,0.10983136235451224
693,272.168592,-2.30131101608276,-0.22188332676888,8.57914257049561,0.9342257830561429,0.30363289677366934,0.11152243127628264
694,272.176925,-2.70865392684937,0.21039532124996,7.77787733078003,0.9331259435536907,0.30589320221725813,0.10768048617304592
695,272.185258,-2.88092303276062,0.65525054931641,6.7110071182251,0.9336567898185887,0.30837740216936427,0.11213496023294897
696,272.19359099999997,-2.86335110664368,1.25608348846436,5.7709641456604,0.9339661500891856,0.3094784824215633,0.11267429711867347
697,272.20192399999996,-2.67007923126221,1.80603396892548,4.6135458946228,0.9331713890542785,0.3084162789948132,0.11406688057646427
698,272.210257,-2.47963738441467,2.44001221656799,3.55708742141724,0.9313478275221224,0.3076821443985918,0.11970038316687753
699,272.21859,-2.17523765563965,2.96943283081055,2.38590216636658,0.9315277605640643,0.3055538693252877,0.12060693332127141
700,272.226923,-1.90600657463074,3.43707156181335,1.0722758769989,0.9291688763365448,0.3064223698207306,0.12087179689991223
701,272.235256,-1.52455902099609,3.89513111114502,-0.14592427015305,0.929543436789999,0.3090742656162806,0.12179725024164897
702,272.243589,-1.23322284221649,4.41510057449341,-1.53757131099701,0.9288028794891979,0.309073779047752,0.1215030344165102
703,272.251922,-1.02989721298218,4.63551092147827,-2.82015299797058,0.9271504927654654,0.3082475613574592,0.12521067444159079
704,272.260255,-0.84623026847839,5.09032964706421,-4.23135614395142,0.9265337184983856,0.3104678951964081,0.12364698916065409
705,272.26858799999997,-0.84100514650345,5.21427774429321,-5.60766124725342,0.9236661755308816,0.30923351949575,0.1275546575079163
706,272.276921,-0.84191435575485,5.45749711990356,-6.80193758010864,0.9217618436229468,0.3092111860002785,0.13215257197010305
707,272.285254,-0.80423587560654,5.3863410949707,-7.90744829177856,0.9226959578844969,0.31237740905917444,0.13204676764351936
708,272.293587,-0.83971160650253,5.53918170928955,-9.01447105407715,0.9218785227561479,0.3146899476343275,0.1328864267894204
709,272.30192,-0.85578435659409,5.62758827209473,-9.92937183380127,0.926698957170759,0.31308300641118264,0.13157692490791836
710,272.310253,-0.87992572784424,5.75831031799316,-10.78331184387207,0.9249688167961275,0.31839030129568874,0.13644284131575612
711,272.318586,-0.90474605560303,5.67888164520264,-11.8545503616333,0.9279434048399633,0.32159138698967143,0.13377822175317855
712,272.326919,-0.83738076686859,5.72219657897949,-12.66849708557129,0.9307984916531306,0.32090702835394386,0.13614582772157652
713,272.33525199999997,-0.80543965101242,5.91496753692627,-13.41883659362793,0.9332941016372367,0.3238177056215245,0.1405447478197061
714,272.34358499999996,-0.60530287027359,5.93234777450562,-14.33092403411865,0.9349079521334897,0.32517878376707754,0.1427368606839857
715,272.351918,-0.3827151954174,5.9844217300415,-15.30972194671631,0.9378878924311429,0.3256583213806153,0.14327887369661937
716,272.360251,-0.30762705206871,5.93676662445068,-16.27313995361328,0.9364942628510142,0.3248513718040622,0.14259631536444795
717,272.368584,-0.31707870960236,6.07193279266357,-16.99507522583008,0.93767769482671,0.32754338517480913,0.1429829183889898
718,272.376917,-0.23513872921467,6.05320930480957,-17.71557998657227,0.9399030646499326,0.3280391255203561,0.14629934515271836
719,272.38525,-0.34118166565895,5.96066427230835,-18.34863471984863,0.9393837987160194,0.32928770902205506,0.1467148016910163
720,272.393583,-0.38462343811989,5.97821044921875,-18.8334846496582,0.9393994662226458,0.3311505366344836,0.1458854942905663
721,272.40191599999997,-0.53541445732117,5.77759885787964,-19.49906921386719,0.9403450635014744,0.3325952802385602,0.1469620879815551
722,272.41024899999996,-0.52242809534073,5.66143989562988,-19.90746688842773,0.9408969295268151,0.33561784393933364,0.15111722508255307
723,272.418582,-0.51512807607651,5.62409400939941,-20.20382308959961,0.9424038322604428,0.3359943263384765,0.15106837360226427
724,272.426915,-0.63683414459229,5.23920154571533,-20.60713386535645,0.9412550439639968,0.33707387593327753,0.14889977416213673
725,272.435248,-0.5921117067337,5.23295259475708,-20.83958435058594,0.9426151976293449,0.3402829170227051,0.1542901262945061
726,272.443581,-0.42249420285225,5.15134477615356,-21.02994918823242,0.9423134278277959,0.34205984096137854,0.15279743136191837
727,272.451914,-0.19167140126228,4.95720148086548,-21.20152473449707,0.9430820114758551,0.3433581031098653,0.15566379440074082
728,272.460247,-0.02348826266825,4.70533657073975,-21.27042770385742,0.9446402958461214,0.3456496219245755,0.15641051895764388
729,272.46858,0.25922894477844,4.48331260681152,-21.42339324951172,0.9444626010194113,0.34650145744790817,0.15629937454145815
730,272.47691299999997,0.37595310807228,4.2711501121521,-21.44893455505371,0.945482837910555,0.3476616801047816,0.1557351861681255
731,272.48524599999996,0.47997254133224,3.988112449646,-21.40695381164551,0.9480416044896959,0.3483845992964143,0.1604980595257816
732,272.493579,0.65978455543518,3.78875684738159,-21.16730499267578,0.948509975355499,0.348810030489552,0.15714037175081225
733,272.501912,0.504818379879,3.26799368858337,-21.07053375244141,0.9510988118697183,0.3483442870938051,0.159117907893901
734,272.510245,0.54218947887421,2.97212314605713,-20.78964805603027,0.9501670331371072,0.3537495525515806,0.16093603202274895
735,272.518578,0.32531368732452,2.56508708000183,-20.49067687988281,0.9519091430975469,0.35135570837526936,0.16324486051286938
736,272.526911,0.14294028282166,2.21547842025757,-20.11143493652344,0.9535939352852959,0.3556212843680867,0.1638816084180561
737,272.535244,-0.07341042160988,1.66559171676636,-19.7301139831543,0.9536920275006978,0.35253043077429896,0.1596246203597714
738,272.54357699999997,-0.4454188644886,1.25905525684357,-19.18308258056641,0.9546640941074918,0.3545502010656867,0.16657930247637653
739,272.55190999999996,-0.5476581454277,0.72918629646301,-18.7839241027832,0.9543041307099009,0.3544180003964173,0.16405628651988774
740,272.560243,-0.79571926593781,0.26435181498528,-18.09709167480469,0.9555514977902785,0.35670119888928464,0.1668340332654061
741,272.568576,-1.26527941226959,-0.23903207480907,-17.45703887939453,0.9545670723428529,0.3572546219339173,0.16385906813096018
742,272.576909,-1.69030928611755,-0.75980800390244,-16.9182300567627,0.9543755589699254,0.3559551920209612,0.16460885806959488
743,272.585242,-2.11578750610352,-1.31988894939423,-16.11181831359863,0.9542697789717693,0.35639191160396627,0.16194545492833978
744,272.593575,-2.53346586227417,-1.88105845451355,-15.4286994934082,0.9511416299002509,0.35715288045454996,0.16296576480476221
745,272.601908,-2.93708252906799,-2.238440990448,-14.57206916809082,0.9496564281230071,0.3583340985434397,0.16429822055660917
746,272.610241,-3.2376651763916,-2.69593667984009,-13.75356483459473,0.9505713715845224,0.35848286687111325,0.1668367945418061
747,272.61857399999997,-3.48666167259216,-3.10755801200867,-12.95547866821289,0.9495306015014653,0.35733680335842855,0.16458713278478468
748,272.62690699999996,-3.55402708053589,-3.44653725624084,-12.14960289001465,0.9461361048172929,0.36113481132351627,0.16569611977557755
749,272.63524,-3.58694100379944,-3.78851222991943,-11.21063423156738,0.9438539037899091,0.3612047798779551,0.16071186990154082
750,272.643573,-3.49207854270935,-4.18167781829834,-10.475417137146,0.9435818146686162,0.36352123532976427,0.15915753890057038
751,272.651906,-3.22320628166199,-4.42590951919556,-9.72781467437744,0.9432937660995796,0.3616805952422469,0.16156969021777753
752,272.660239,-2.9632728099823,-4.70602750778198,-9.08748435974121,0.9413880717997654,0.36209916581912954,0.16275199092164286
753,272.668572,-2.59482455253601,-5.01743173599243,-8.34568119049072,0.9385765815267755,0.36242066597451933,0.16038204942430814
754,272.676905,-2.27126574516296,-5.20741367340088,-7.73342561721802,0.937297976746851,0.35837450805975507,0.16017454011099694
755,272.68523799999997,-2.04715371131897,-5.41121244430542,-7.1225380897522,0.9355624841184029,0.35767489550064996,0.16314181746268774
756,272.69357099999996,-1.84603095054626,-5.74517059326172,-6.54042863845825,0.9327343532017295,0.35805721672213775,0.15939544658271632
757,272.701904,-1.6571387052536,-6.04228353500366,-5.96827125549316,0.9321208876006458,0.35602649863885405,0.15944160977188468
758,272.710237,-1.54881608486176,-6.40495538711548,-5.34645938873291,0.9330807899942203,0.35679948573209797,0.16032422075466224
759,272.71857,-1.49327147006989,-6.69494533538818,-4.68605995178223,0.9325023573272082,0.35483664395857856,0.16327298417383265
760,272.726903,-1.33831834793091,-6.79995346069336,-4.1599063873291,0.9334679039157162,0.35351743503492755,0.16097091898626223
761,272.735236,-1.24508249759674,-7.10481357574463,-3.42244672775269,0.9329639162336082,0.3549105537181,0.15718989226282856
762,272.743569,-1.08099782466888,-7.36236524581909,-2.7398784160614,0.9330198716144174,0.35395948254332243,0.15547518827477244
763,272.751902,-1.07193028926849,-7.58090543746948,-2.06924629211426,0.9355059448553591,0.35604849153635404,0.1578004262885265
764,272.76023499999997,-1.00433433055878,-7.85820531845093,-1.36065411567688,0.934928388011699,0.3552207411551959,0.1566678893809418
765,272.76856799999996,-0.87877333164215,-8.06345272064209,-0.73953431844711,0.9362958402049786,0.3536574208006571,0.15663653003926223
766,272.776901,-0.92088294029236,-8.19921875,-0.02827811427414,0.9392702336214029,0.3533438760407112,0.1608587527761653
767,272.785234,-0.8456284403801,-8.32197570800781,0.71780061721802,0.9395278230005377,0.35268890614412246,0.15746758908641634
768,272.793567,-0.86565864086151,-8.49302673339844,1.42362630367279,0.9415920413270285,0.3511416182226061,0.1556135440359306
769,272.8019,-0.99257731437683,-8.57332801818848,2.04415702819824,0.9398912896915357,0.3511179709921081,0.15439669696652142
770,272.810233,-0.92235589027405,-8.77758979797363,2.70286560058594,0.9397204068242284,0.3476269391118265,0.15556614009701428
771,272.818566,-1.06774246692657,-8.89108657836914,3.4929883480072,0.9379995112516438,0.34759740440212955,0.1558531668721408
772,272.82689899999997,-1.10051548480988,-8.82073402404785,4.18591642379761,0.9408791211186622,0.34743102229371325,0.1508336894366204
773,272.83523199999996,-1.13166260719299,-8.86046504974365,4.84983825683594,0.9359817115627989,0.34511293683733263,0.15080333972463775
774,272.843565,-1.1999374628067,-8.86962223052979,5.50652360916138,0.9363035279877336,0.34487970021306225,0.14767671117977244
775,272.851898,-0.86090731620789,-8.77395153045654,6.09419059753418,0.937895677527603,0.34464108700654894,0.14890735246697243
776,272.860231,-0.72145056724548,-8.62089538574219,6.79142379760742,0.9365706541100326,0.3428355771668102,0.14950766855356631
777,272.868564,-0.63320952653885,-8.4726390838623,7.33626365661621,0.9384694391367387,0.3433417300788724,0.14705176256140917
778,272.876897,-0.30127462744713,-8.40616989135742,7.93543100357056,0.9345585959298264,0.3416263813875163,0.14783140347928367
779,272.88523,-0.00791479926556,-8.19336795806885,8.53565120697021,0.9302549946064845,0.33889546686289285,0.14775743289869692
780,272.893563,0.47254419326782,-8.01373291015625,9.10638523101807,0.9283298375655193,0.3366258436319775,0.14561428099262447
781,272.90189599999997,0.63883191347122,-7.79176187515259,9.7951545715332,0.9260236000528143,0.33500114265753267,0.1457135044798561
782,272.910229,1.00429594516754,-7.60552072525024,10.23845958709717,0.9297846774665672,0.33522571836199083,0.147653732981001
783,272.918562,1.27611422538757,-7.32932233810425,10.6995677947998,0.9315386596991091,0.33542805788468366,0.14323334304653876
784,272.926895,1.75100207328796,-7.05765724182129,11.00465774536133,0.929622942087602,0.3361660363722816,0.1422805323892714
785,272.935228,2.08337235450745,-6.7727746963501,11.3398962020874,0.9344737383784081,0.3315990311758857,0.14088215876598773
786,272.943561,2.47689652442932,-6.53800821304321,11.5345516204834,0.9334861015786927,0.33158676964896017,0.14236124194398264
787,272.951894,2.99356174468994,-6.1986198425293,11.61152362823486,0.9321771349225723,0.3304363270195163,0.14562847662945202
788,272.960227,3.20505833625793,-6.00159549713135,11.9440221786499,0.9306471688406805,0.327060563223703,0.14463936795993773
789,272.96855999999997,3.38479375839233,-5.56687068939209,11.85959720611572,0.9310623091094345,0.3268517766680041,0.1485850738019357
790,272.97689299999996,3.58649277687073,-5.25774431228638,11.84408760070801,0.9299203327723907,0.3242011946074816,0.14287685861392854
791,272.985226,3.61854887008667,-5.16718626022339,11.73892974853516,0.9299767747217295,0.32292918283112243,0.14613426461511733
792,272.993559,3.76451182365417,-4.85537004470825,11.63020801544189,0.9286928176879887,0.322929207159548,0.14967390469142344
793,273.001892,3.7624626159668,-4.68209075927734,11.58661460876465,0.9318067589584663,0.32017634839427755,0.1462993573169316
794,273.010225,3.38316679000854,-4.66805410385132,11.48413181304932,0.9312440911117866,0.31911652915331734,0.14773402895246224
795,273.018558,3.15184450149536,-4.63383340835571,11.44681072235107,0.9303332348259132,0.3187454233364183,0.14784399343996632
796,273.026891,2.76430153846741,-4.48913908004761,11.3072395324707,0.9313554179911714,0.3183755339408408,0.15297754686705917
797,273.03522399999997,2.32255792617798,-4.5497670173645,11.26758766174316,0.9308583395821703,0.31826043615535815,0.15006424212942346
798,273.04355699999996,2.02466440200806,-4.48370790481567,11.20181083679199,0.9337506975446428,0.3168812090036816,0.14945792908571223
799,273.05189,1.50477206707001,-4.44536304473877,11.25311374664307,0.9330876992673286,0.3184274751312878,0.14787804107276734
800,273.060223,1.15944111347198,-4.35755777359009,11.26195049285889,0.9332671457407427,0.3179947454102183,0.1494557516915459
801,273.068556,0.96190428733826,-4.32484912872314,11.22809219360352,0.9330246399859988,0.3171137887604377,0.1477543310243255
802,273.076889,0.73575621843338,-4.03177118301392,11.35173225402832,0.9346440373634805,0.3165165745482153,0.15127831575821835
803,273.085222,0.61939072608948,-3.96263813972473,11.3988618850708,0.9354934887010223,0.31828916802698265,0.15030997140066937
804,273.093555,0.62584549188614,-3.61167168617249,11.45503234863281,0.9373129630575378,0.3153522890441275,0.15066341477997447
805,273.101888,0.31994745135307,-3.49675369262695,11.42720413208008,0.9378808858443275,0.3179987839290071,0.15020397244667552
806,273.11022099999997,0.30488628149033,-3.20498180389404,11.45281791687012,0.9372709235366509,0.3136946717087102,0.15394046598551223
807,273.11855399999996,0.15652860701084,-3.04041004180908,11.44262218475342,0.9344385108169243,0.31482677070461934,0.154518509397701
808,273.126887,0.06671228259802,-2.73302602767944,11.35582733154297,0.9331697347212805,0.3153877598898755,0.1536671726071102
809,273.13522,-0.13703617453575,-2.4525249004364,11.45285511016846,0.9338013006716356,0.3129695143018449,0.1537341244366704
810,273.143553,-0.27599343657494,-2.2418475151062,11.34893798828125,0.9310938387501,0.3130339116466285,0.1545126827395694
811,273.151886,-0.30583396553993,-2.09523153305054,11.3458890914917,0.9333297184535438,0.3139099782826949,0.154465047680602
812,273.160219,-0.30208149552345,-2.0339241027832,11.16516971588135,0.9311940718670285,0.3158678327287949,0.15516506165874286
813,273.168552,-0.125548183918,-1.65744602680206,11.08205127716064,0.9315829374352276,0.31476283559993773,0.15366208796598468
814,273.17688499999997,-0.16554483771324,-1.58002722263336,10.88496398925781,0.9336005424966622,0.312740535152202,0.15713026328962654
815,273.18521799999996,-0.00135755469091,-1.46647918224335,10.4786958694458,0.9321597157692418,0.31279451993046936,0.16280974660600916
816,273.193551,0.01205149758607,-1.24022841453552,10.17460155487061,0.9315097575285,0.3114270434087632,0.16170220715658978
817,273.201884,0.15254558622837,-0.99896800518036,9.77112674713135,0.9328754580750754,0.309657077400052,0.162618342711001
818,273.210217,0.15129047632217,-0.90903651714325,9.23012924194336,0.9283633134802989,0.30880251709295814,0.16092452467704285
819,273.21855,0.10610697418451,-0.61664992570877,8.82977867126465,0.9275209660432774,0.30832037633779075,0.16221675337577346
820,273.226883,-0.13154189288616,-0.54417443275452,8.35213565826416,0.9251518638766539,0.3058294374115612,0.16190137181963263
821,273.235216,-0.24040244519711,-0.509441614151,7.81710720062256,0.9263246886584224,0.3078271174917418,0.16254182980985102
822,273.243549,-0.42728382349014,-0.24512822926044,7.35008192062378,0.9212084205783143,0.30747221440684996,0.16260004773431935
823,273.25188199999997,-0.58164811134338,-0.14872907102108,6.800208568573,0.9222900624177897,0.30412630159027754,0.1643848784115847
824,273.26021499999996,-0.68725562095642,-0.04752721637487,6.25575304031372,0.9196413779745296,0.3060696562942194,0.1660769691272653
825,273.268548,-0.61928814649582,-0.03921539336443,5.80718231201172,0.919567419558155,0.3056004096050653,0.16224099665272038
826,273.276881,-0.68748605251312,0.04684843868017,5.37290620803833,0.9171601704188755,0.30701486431822445,0.16391812538614078
827,273.285214,-0.49951601028442,0.3611478805542,4.82751512527466,0.9170985708431326,0.30581082616533567,0.16509281129253162
828,273.293547,-0.36971589922905,0.32686328887939,4.25968599319458,0.918634862315898,0.30881674922242447,0.16551680710850916
829,273.30188,-0.15511982142925,0.44540593028069,3.63659381866455,0.9199229065252806,0.30951339371350306,0.16673550313832855
830,273.310213,0.18166896700859,0.65982270240784,3.07884407043457,0.9196007008455234,0.30984817718972957,0.1671895567251714
831,273.31854599999997,0.39134711027145,0.64084261655807,2.40693140029907,0.9223505915427694,0.31031676701137034,0.16797396601462855
832,273.32687899999996,0.3719827234745,0.82152539491653,1.79413640499115,0.9223550679732347,0.30987425726287243,0.16426469598497653
833,273.335212,0.45784166455269,0.92387992143631,1.33392548561096,0.9233386175973071,0.30959774036796733,0.1677790831546398
834,273.343545,0.42815479636192,1.04285800457001,0.49349665641785,0.9257829432584807,0.3124595418268316,0.1696771140001255
835,273.351878,0.54001212120056,1.16152858734131,-0.08127396553755,0.9244590876053784,0.3129536278393806,0.17001580218879592
836,273.360211,0.42344170808792,1.21073365211487,-0.65895181894302,0.9272158875757335,0.3149878248876459,0.17289227368880306
837,273.368544,0.1761362850666,1.24533843994141,-1.17874145507812,0.9290551166145172,0.3158238955906459,0.16887342443271527
838,273.376877,0.34460112452507,1.34315931797028,-1.67068862915039,0.9271425130415939,0.3170712383425969,0.1727890968322755
839,273.38521,0.28475350141525,1.30797815322876,-2.23626399040222,0.9289605276925225,0.317644051143101,0.17305138159771327
840,273.39354299999997,0.22053855657578,1.30795252323151,-2.65057373046875,0.9271530229218153,0.31930288489983977,0.17333747172842245
841,273.401876,0.31555458903313,1.40601670742035,-3.09768342971802,0.9266137103645172,0.32087260363053266,0.17304579822384591
842,273.410209,0.38837578892708,1.39320933818817,-3.41278910636902,0.9269867137986786,0.32160569210441736,0.17184095723288367
843,273.418542,0.35835593938828,1.4953076839447,-3.85819506645203,0.9239086812856243,0.32379021449964895,0.1709240796614663
844,273.426875,0.42324963212013,1.33720397949219,-4.3138599395752,0.9261698625525653,0.32590824730542245,0.17446798937661326
845,273.435208,0.44317746162415,1.25972092151642,-4.59325981140137,0.9260759548265101,0.3253646772734969,0.17222565047594998
846,273.443541,0.42551645636559,1.42389523983002,-4.98811531066895,0.9243852265027102,0.3260409588716469,0.17082303154225204
847,273.451874,0.21576149761677,1.18486320972443,-5.33869791030884,0.9273382109038684,0.3266451796706847,0.17268686878437856
848,273.46020699999997,0.19429676234722,1.07331335544586,-5.60111570358276,0.9242652387035132,0.32667174631235507,0.17282724380493164
849,273.46853999999996,-0.18524216115475,1.08583867549896,-6.01097059249878,0.9254727071645306,0.3291715651142357,0.17088055610656733
850,273.476873,-0.32660710811615,1.11178588867188,-6.38334941864014,0.9284186849788745,0.3299971259370143,0.17407507312541123
851,273.485206,-0.51630616188049,0.93105190992355,-6.57876014709473,0.9279841792826744,0.3292663486636418,0.17346917366494896
852,273.493539,-0.78220748901367,0.91770678758621,-6.92995643615723,0.9261748255515581,0.3293224013581571,0.1746657794835612
853,273.501872,-0.99949306249619,0.75615781545639,-7.27738809585571,0.9284187822925806,0.3342174753850816,0.1727486873159602
854,273.510205,-1.10307693481445,0.55913311243057,-7.46642160415649,0.9265078330526549,0.33351214564576426,0.1748564656899898
855,273.518538,-1.25999009609222,0.5070338845253,-7.74126291275024,0.9268353909862286,0.33315415285071526,0.1717485457050561
856,273.52687099999997,-1.34564399719238,0.56177151203156,-7.89487218856812,0.9258821059246448,0.33466891366608265,0.17068653690571733
857,273.53520399999996,-1.61810231208801,0.38139596581459,-8.01915073394775,0.9275311839823815,0.33814758670573364,0.1718466500846704
858,273.543537,-1.64215409755707,0.30734524130821,-8.19342994689941,0.9274943020879008,0.33698089268742754,0.17355365412575816
859,273.55187,-1.90582704544067,0.16795252263546,-8.26435565948486,0.9294795016853172,0.33780034707517037,0.17123672426963366
860,273.560203,-1.98266971111298,0.13613964617252,-8.38650989532471,0.9269839890149172,0.3384743418012347,0.17094169344220814
861,273.568536,-2.15833210945129,-0.10175254195929,-8.44012069702148,0.9313609648723989,0.34076194373928775,0.17082177862829082
862,273.576869,-2.28271508216858,-0.04061136767268,-8.51453113555908,0.9306003609482122,0.34193323583018975,0.17279283124573366
863,273.585202,-2.3148992061615,-0.06449665129185,-8.58001327514648,0.9315378811894632,0.3438085439253826,0.1702564468189163
864,273.593535,-2.16322445869446,-0.2564112842083,-8.62515830993652,0.9311631261085979,0.3435350437553561,0.16637429899098874
865,273.60186799999997,-2.21332621574402,-0.11325334012508,-8.65863609313965,0.9315281498188877,0.3458268301827571,0.167772100896251
866,273.61020099999996,-1.85566163063049,-0.10401941090822,-8.64076995849609,0.9288443351278499,0.3446589683999816,0.1681387302826857
867,273.618534,-1.80399787425995,-0.18111827969551,-8.61456680297852,0.9287068308616172,0.34640416807057856,0.17134824577642957
868,273.626867,-1.63745415210724,-0.3506076335907,-8.60255432128906,0.9289585814184071,0.34835280204305813,0.17049306509446122
869,273.6352,-1.51855278015137,-0.35716491937637,-8.51749038696289,0.9280413997416591,0.3467164234239224,0.1697449294888245
870,273.643533,-1.3758430480957,-0.46357917785645,-8.32629108428955,0.9285293306623184,0.34848884660370505,0.17081349479908875
871,273.651866,-1.48554873466492,-0.46852275729179,-8.30682373046875,0.9292395260869245,0.3478330981974704,0.16728210205934488
872,273.660199,-1.45928132534027,-0.57094126939774,-8.35868072509766,0.9335612277595368,0.34945862633841424,0.16496153510346734
873,273.66853199999997,-1.434730052948,-0.71946537494659,-8.20526313781738,0.9346672953391562,0.35058041008151325,0.1658987390751745
874,273.67686499999996,-1.44436097145081,-0.72581773996353,-8.09850311279297,0.9371759453598337,0.3537306980210908,0.16651213169097856
875,273.685198,-1.04447162151337,-0.85547697544098,-8.1967601776123,0.9397795735573286,0.35564439637320405,0.16502717319799895
876,273.693531,-0.74575835466385,-0.86413460969925,-8.23174858093262,0.9386152150679611,0.3559279685117765,0.16576292563457856
877,273.701864,-0.57862555980682,-0.87235677242279,-8.17181205749512,0.9369484259157764,0.3547595958320459,0.16790111454165713
878,273.710197,-0.43774735927582,-1.04038643836975,-8.06477165222168,0.9346052091948835,0.3541252564410775,0.1641949828790163
879,273.71853,-0.39289671182632,-1.20733952522278,-8.16676616668701,0.9321103777204244,0.35326629268879794,0.1674395069784051
880,273.726863,-0.44746786355972,-1.36024379730225,-8.06611442565918,0.9307909984977877,0.35367792966414485,0.16430313489874998
881,273.735196,-0.57080054283142,-1.4263801574707,-7.83151531219482,0.9274899229711417,0.3516657984986602,0.16481596596386938
882,273.74352899999997,-0.71628940105438,-1.59207856655121,-7.80244255065918,0.9261005751940674,0.3532222339085173,0.16493361823412855
883,273.75186199999996,-1.03779947757721,-1.88595080375671,-7.56873846054077,0.9267493656703407,0.35195895603724897,0.16514373068906835
884,273.760195,-1.43490958213806,-2.08841824531555,-7.3187050819397,0.924330146945253,0.35301074689748363,0.16273052108531122
885,273.768528,-1.55971479415894,-2.27167558670044,-6.93104600906372,0.9246687986412826,0.3516528314473673,0.16443112675024488
886,273.776861,-1.8054450750351,-2.50485444068909,-6.44756412506104,0.9243384186102417,0.3562188635067061,0.16371563989288979
887,273.785194,-1.68569839000702,-2.71740126609802,-6.07713079452515,0.9238281055372591,0.35856679994232754,0.15914600722643774
888,273.793527,-1.75127053260803,-2.70710420608521,-5.67175960540771,0.9265950261330121,0.35984513710956223,0.1614660632853602
889,273.80186,-1.53249979019165,-2.88637852668762,-5.36426115036011,0.9300391528071192,0.360077424925201,0.16060643050135406
890,273.81019299999997,-1.46077978610992,-2.9852237701416,-4.96403884887695,0.9305153087693815,0.36102827714413976,0.16176693293513061
891,273.81852599999996,-1.15297365188599,-2.91478443145752,-4.56417512893677,0.9353972454460295,0.36300372104255507,0.1592925981599459
892,273.826859,-0.94365406036377,-2.96017289161682,-4.45170259475708,0.9363189035532427,0.3640311104910714,0.16110343592507448
893,273.835192,-0.66082161664963,-3.08294224739075,-4.05670547485352,0.9383798132137378,0.36346172799869486,0.15867930285784693
894,273.843525,-0.5928927063942,-3.0986692905426,-3.75286960601807,0.9397463895836653,0.3628063201904296,0.16010322132889082
895,273.851858,-0.54022985696793,-3.21319031715393,-3.55797100067139,0.9423588733283836,0.362798656736101,0.16172593953658163
896,273.860191,-0.5416898727417,-3.31362438201904,-3.37977290153503,0.9410398833605703,0.36195781766151935,0.16085880143301837
897,273.868524,-0.98440635204315,-3.38787961006165,-3.10459923744202,0.9427561078752786,0.35877305634167755,0.161147628511701
898,273.876857,-1.45952486991882,-3.30255889892578,-2.77712106704712,0.9451674441901999,0.3598815081070877,0.15960397768993775
899,273.88518999999997,-1.84373807907104,-3.55319428443909,-2.55240702629089,0.943973015765754,0.3581944047188275,0.16166550772530713
900,273.89352299999996,-2.28932356834412,-3.84506773948669,-2.16655468940735,0.9453927254190255,0.3612903672821663,0.1610134937325306
901,273.901856,-2.70663022994995,-4.0370979309082,-1.7519623041153,0.9446557687253367,0.3628366820666255,0.1618227058527418
902,273.910189,-2.99901700019836,-4.15548658370972,-1.30199718475342,0.9435492145771888,0.3620336736951551,0.16302404355029693
903,273.918522,-3.20371341705322,-4.16976737976074,-0.95665329694748,0.9433596474783764,0.36316034745196935,0.16251716078544182
904,273.926855,-3.4926164150238,-4.25454998016357,-0.38266384601593,0.9444647419209388,0.36152416346024485,0.158644294252201
905,273.935188,-3.48548293113708,-4.07057571411133,0.17933806777,0.942130867315798,0.3643272117692602,0.15758991241455103
906,273.943521,-3.52910399436951,-4.18566083908081,0.69108492136002,0.9412575741203457,0.3607535362243653,0.15961559451356222
907,273.95185399999997,-3.41836023330688,-4.08242225646973,1.200923204422,0.9413725989205499,0.3625574160595326,0.16103194684398367
908,273.96018699999996,-3.42437982559204,-3.99561548233032,1.69141030311584,0.9406838125112101,0.35849199003102855,0.16268744760630102
909,273.96852,-3.35725784301758,-3.93095231056213,2.29960751533508,0.9391495646262653,0.35748206839269486,0.16532576813989797
910,273.976853,-3.35764217376709,-3.96038365364075,2.70456886291504,0.9329778320935305,0.3569349220820836,0.16366396631513366
911,273.985186,-3.41221332550049,-3.70023250579834,3.09599256515503,0.9349200190330039,0.3526000344023408,0.16313568669922446
912,273.993519,-3.28254103660583,-3.70672535896301,3.41864204406738,0.9337608181700418,0.3547811994747235,0.16755814454993467
913,274.001852,-3.19732284545898,-3.69978451728821,3.84153366088867,0.933847232740753,0.35272766132743977,0.1635304884034755
914,274.010185,-3.02798676490784,-3.53623747825623,4.22141790390015,0.9351676824141519,0.353790472964851,0.16913673099206425
915,274.018518,-2.95068311691284,-3.68559408187866,4.53939342498779,0.9342299675454898,0.3515177843522051,0.16818305667565814
916,274.02685099999997,-2.83596968650818,-3.6718008518219,4.97236347198486,0.9355568399234693,0.3484899900397479,0.17027760038570508
917,274.035184,-2.75455498695374,-3.73298025131226,5.14230108261108,0.9345889578060224,0.34626999679876835,0.1716128417423796
918,274.043517,-2.69751167297363,-3.84691190719604,5.44623899459839,0.9358007080700929,0.3425222270342765,0.1729466477218939
919,274.05185,-2.8112907409668,-4.1268253326416,5.78488540649414,0.9354823949385662,0.34320682895426835,0.17410352522013162
920,274.060183,-3.11812376976013,-4.22436475753784,6.06193017959595,0.9355824334280826,0.3402797299988418,0.17483502018208366
921,274.068516,-3.5677809715271,-4.40699291229248,6.23254489898682,0.9349270256198183,0.3383248436207673,0.17307962690080916
922,274.076849,-3.97297286987305,-4.6233057975769,6.57447052001953,0.9331008366176061,0.33716330722886734,0.1781576750229816
923,274.085182,-4.51097440719604,-4.68268013000488,6.83524894714355,0.9344281955641143,0.33479928970336936,0.17907029511977243
924,274.09351499999997,-4.90730381011963,-4.7168231010437,7.10993576049805,0.9316706170841142,0.3330989273226989,0.17779795490965508
925,274.10184799999996,-5.32901668548584,-4.95685434341431,7.36167287826538,0.9314898082188193,0.333716918011101,0.17841594559805712
926,274.110181,-5.83056926727295,-5.03956317901611,7.70154905319214,0.9304208171610927,0.33406734466552757,0.17552684764472753
927,274.118514,-6.05671691894531,-4.9718132019043,8.11862373352051,0.9314070915689275,0.33346049639643466,0.1773665632520408
928,274.126847,-5.97080612182617,-5.10902833938599,8.44735717773438,0.9291271287567764,0.3314878259386337,0.17651140689849898
929,274.13518,-6.09616327285767,-5.03971719741821,8.71495056152344,0.9293361585967398,0.33142155530501427,0.17752576847465712
930,274.143513,-5.98087358474731,-5.10042285919189,9.04619407653809,0.9267864421922336,0.3302754917923285,0.17590470459996427
931,274.151846,-5.96445465087891,-5.19401597976685,9.34956741333008,0.9253357867805326,0.3282515370115939,0.1768754574717306
932,274.16017899999997,-5.83102941513062,-5.12624168395996,9.47392463684082,0.9244812751302919,0.3282099110739571,0.1734490540562847
933,274.16851199999996,-5.97470045089722,-5.21286916732788,9.81705474853516,0.926824102596361,0.32721164275188874,0.17322245909243164
934,274.176845,-5.95992183685303,-5.26391887664795,9.9281702041626,0.9279443779770202,0.3220056757635,0.17295343535287042
935,274.185178,-5.86796617507935,-5.22882747650146,9.98856830596924,0.9278193298651245,0.32287865268940813,0.1755026165319949
936,274.193511,-6.00597524642944,-5.20326375961304,9.97389030456543,0.9272791414844744,0.3202468278456704,0.1764058336919663
937,274.201844,-6.36344766616821,-5.1851806640625,9.99100017547607,0.927308432909907,0.3178455878277214,0.17587317495929997
938,274.210177,-6.65293979644775,-5.16929960250854,9.93352222442627,0.9272914030114,0.3170291501648571,0.17421913390256938
939,274.21851,-6.89685106277466,-5.16052579879761,9.71076774597168,0.9281656693439092,0.3159243233349857,0.17530631045905917
940,274.226843,-7.04692554473877,-5.12369298934937,9.55231761932373,0.9304721987977316,0.31313652894934796,0.17145106987077346
941,274.23517599999997,-7.08190107345581,-5.04811763763428,9.22900104522705,0.9304894233236508,0.3162613206980184,0.1758813249821561
942,274.24350899999996,-7.09698820114136,-4.93656730651855,8.81548500061035,0.9315850783367551,0.31640658573228464,0.17434716224670407
943,274.251842,-6.94135665893555,-4.78508567810059,8.42435741424561,0.9302795176603358,0.31216541115118573,0.17127859349153468
944,274.260175,-7.04391527175903,-4.72381544113159,8.11427021026611,0.9312396146813213,0.31166020704775405,0.1736534493310112
945,274.268508,-7.1376371383667,-4.76738548278809,7.75853824615479,0.9280828553803112,0.30975465871849794,0.1741383391983653
946,274.276841,-7.24365472793579,-4.52553606033325,7.23851919174194,0.9273999077933173,0.3096930834711816,0.1725031161794857
947,274.285174,-7.13529396057129,-4.37181186676025,6.61418485641479,0.9263671174341316,0.3098943038862581,0.16834711541934896
948,274.293507,-6.99751567840576,-4.29253673553467,6.06312084197998,0.925023312471351,0.3122487603401653,0.16925062452043776
949,274.30183999999997,-6.97918748855591,-4.06399297714233,5.37677383422852,0.925928719189702,0.3071210578996306,0.1696051870073592
950,274.31017299999996,-6.9592866897583,-4.09181070327759,4.89620018005371,0.9228615858116928,0.30665621465566223,0.17058412639462245
951,274.318506,-6.94258451461792,-3.87882781028748,4.12462186813354,0.9236044786414326,0.30611446925571933,0.1715010282944663
952,274.326839,-7.04076433181763,-3.90408372879028,3.51387619972229,0.9216880798339847,0.3058632295958847,0.16808549968563774
953,274.335172,-6.77742385864258,-3.71615147590637,2.74719071388245,0.9203968242723112,0.3073450253934275,0.16720359422722653
954,274.343505,-6.58129692077637,-3.65959620475769,2.11587715148926,0.9187370417069417,0.3094756359956704,0.1664516998797051
955,274.351838,-6.24984741210938,-3.39497470855713,1.39711558818817,0.918513317497409,0.3059997850534867,0.16829696236824487
956,274.360171,-6.09119367599487,-3.20914340019226,0.62177270650864,0.9198510890104336,0.3078582822060102,0.16980650473614078
957,274.368504,-6.00495004653931,-3.02484893798828,-0.15168750286102,0.9175462138896081,0.3096297565771612,0.1724820720906163
958,274.37683699999997,-5.8546838760376,-2.91228723526001,-0.90491247177124,0.9171119028208203,0.3076508093853388,0.17274093871213977
959,274.38516999999996,-5.4123010635376,-2.57072162628174,-1.50323557853699,0.9153959702472295,0.3085910787387765,0.17336981637137244
960,274.393503,-5.24113416671753,-2.41907262802124,-2.23945283889771,0.9165883550838549,0.31110011801427756,0.1691042768711949
961,274.401836,-5.09451818466187,-2.26953649520874,-2.92798900604248,0.916870564830547,0.31152443009979897,0.16600498131343264
962,274.410169,-4.8757209777832,-2.13739252090454,-3.51114797592163,0.9224385631327724,0.3128143232695908,0.16572269858146224
963,274.418502,-4.49017524719238,-1.88962602615356,-4.17801427841187,0.9224715524790235,0.31559141314759587,0.16500884172867755
964,274.426835,-4.38067483901978,-1.7014639377594,-4.83714580535889,0.9240965940514387,0.3205101830618724,0.16524783202579998
965,274.435168,-3.97276759147644,-1.52498173713684,-5.49771118164062,0.9275060770462968,0.3229808077520255,0.16893385624398977
966,274.44350099999997,-3.62228798866272,-1.30362355709076,-6.08332920074463,0.9330148113017183,0.3216191457242378,0.16951867512294183
967,274.45183399999996,-2.95198965072632,-1.06684589385986,-6.88187980651855,0.9312256015076928,0.32305907229987957,0.16940909989026123
968,274.460167,-2.75538778305054,-1.04383158683777,-7.35583305358887,0.932763449999751,0.32539851811467346,0.17448961734771734
969,274.4685,-2.50736474990845,-0.86071509122849,-8.08407020568848,0.9317081801745356,0.3233045461226479,0.17033330031803673
970,274.476833,-2.36590981483459,-0.79072427749634,-8.59557437896729,0.9304793026982519,0.3242048925283,0.17197906970977755
971,274.485166,-2.46675372123718,-0.59889930486679,-9.17960548400879,0.9305540396242723,0.3250452936912071,0.17322191170283774
972,274.493499,-2.70775747299194,-0.69861543178558,-9.64680767059326,0.9306815205788121,0.3270133417479847,0.17406760429849386
973,274.501832,-2.90849661827087,-0.63960033655167,-10.32351112365723,0.9294126471694633,0.32871258502103873,0.17375621260428875
974,274.510165,-3.3141233921051,-0.7969229221344,-10.57655334472656,0.9300622161553826,0.32813159786925,0.17183481430520817
975,274.51849799999997,-3.60524249076843,-0.86906546354294,-10.97238349914551,0.9290155099362745,0.3288296777374887,0.17210821716152858
976,274.526831,-4.0070652961731,-1.14868319034576,-10.9109468460083,0.9281274250575469,0.3330027813814122,0.17181222536125917
977,274.535164,-4.20488452911377,-1.17601370811462,-10.91924667358398,0.9289582894772896,0.331537991153951,0.1723844056226765
978,274.543497,-4.16364574432373,-1.23543870449066,-10.88728046417236,0.9285594005973969,0.3363317129563316,0.1719637914579745
979,274.55183,-4.22690010070801,-1.27097845077515,-10.82013320922852,0.9314200342917929,0.3377652168273928,0.17544954406971836
980,274.560163,-4.07484102249146,-1.2491934299469,-10.70549488067627,0.9315214351731906,0.34047506293471935,0.17549657091802448
981,274.568496,-4.0548620223999,-1.17288875579834,-10.52207183837891,0.931323888350506,0.34179215528527035,0.17324796744755305
982,274.576829,-3.77564144134521,-1.07143080234528,-10.3485107421875,0.9313093886083489,0.3431143566053745,0.17441610900723162
983,274.58516199999997,-3.46467137336731,-1.01478493213654,-10.2286491394043,0.9323210618933856,0.34245515356258466,0.1757662880177398
984,274.59349499999996,-3.26137161254883,-0.83994203805923,-10.04135704040527,0.9347384316580631,0.34600072977494184,0.17404508833982552
985,274.601828,-3.15208792686462,-0.82755750417709,-9.80351543426514,0.9378857515296153,0.3448403611475112,0.17589774667000305
986,274.610161,-2.97017550468445,-0.83449894189835,-9.6023416519165,0.9334388071176958,0.34394179071698877,0.17513210676154284
987,274.618494,-2.98248314857483,-0.83784162998199,-9.29442024230957,0.9326651631569377,0.34657852990286736,0.17485185545317958
988,274.626827,-2.93922114372253,-0.80380040407181,-8.95764446258545,0.9365928416349447,0.3483441654516724,0.17527217767676528
989,274.63516,-2.91369652748108,-0.87504649162292,-8.64990234375,0.9343559887944438,0.34702483488588876,0.17428450438441018
990,274.643493,-3.09234261512756,-0.93681508302689,-8.26749420166016,0.9358103421269632,0.34574834667906423,0.17271465184737245
991,274.65182599999997,-3.14026689529419,-1.05802166461945,-7.89178514480591,0.9351367366557214,0.35007690896793264,0.17300025540955202
992,274.66015899999996,-3.18005895614624,-1.02601671218872,-7.38064098358154,0.9358378819056917,0.3498667843487796,0.1747149472333949
993,274.668492,-3.2986786365509,-1.12186515331268,-7.12408828735352,0.9355797086443225,0.35016183950463164,0.17231674826875
994,274.676825,-3.23661494255066,-1.20526516437531,-6.77347993850708,0.9357720005268949,0.35103576523917035,0.1728186072135459
995,274.685158,-3.07667922973633,-1.24337899684906,-6.403404712677,0.934573387613102,0.35120893497856326,0.17503726239107142
996,274.693491,-2.97878170013428,-1.021329164505,-6.03399610519409,0.9332559546645806,0.3519924562804551,0.17476276475556018
997,274.701824,-2.67607283592224,-1.13172650337219,-5.69560670852661,0.9317077909197122,0.3515904776904051,0.17410882881709489
998,274.710157,-2.56347274780273,-1.03008937835693,-5.38142347335815,0.9322128490525846,0.3514402253287183,0.1766047064138918
999,274.71849,-2.50622487068176,-0.89704889059067,-5.15576171875,0.9304787188160174,0.3512091052775479,0.17611059607291735
1000,274.72682299999997,-2.34572601318359,-0.92450731992722,-4.78993892669678,0.9299757042709663,0.35291598767650406,0.1757555956743204
1001,274.73515599999996,-2.31611585617065,-0.98505938053131,-4.51494407653809,0.9288545530669541,0.35287261009216325,0.17630751035651426
1002,274.743489,-2.23371505737305,-0.91923087835312,-4.24955558776855,0.9263612786117866,0.3534954421374265,0.17456934160115817
1003,274.751822,-2.13456249237061,-1.06707632541656,-3.91126823425293,0.926810381363849,0.3508379508037959,0.1771420726970755
1004,274.760155,-2.110267162323,-1.15223097801208,-3.62032890319824,0.9247679613074479,0.3510969998885173,0.176080307182001
1005,274.768488,-2.16157245635986,-1.18919205665588,-3.32379269599915,0.9225486249339825,0.3536754481646479,0.17739609796173672
1006,274.776821,-2.17685127258301,-1.56463253498077,-2.79804754257202,0.922598060296506,0.3491995285968387,0.17814347938615407
1007,274.785154,-2.46009373664856,-1.52849102020264,-2.49856615066528,0.9212290510839347,0.34900137356349387,0.17442078006510814
1008,274.79348699999997,-2.52115797996521,-1.75243651866913,-1.85767257213593,0.9220698415016643,0.35198087594947036,0.1724496301339602
1009,274.80181999999996,-2.79197669029236,-1.96242153644562,-1.43183565139771,0.9199149268014092,0.3513780418707398,0.17318825332485915
1010,274.810153,-3.06598496437073,-2.05290389060974,-0.92594164609909,0.922443331504355,0.35155987252994486,0.17426512679275202
1011,274.818486,-3.15039682388306,-2.06897711753845,-0.50029718875885,0.9237260234599214,0.3520277568272184,0.17342977377833163
1012,274.826819,-3.16284561157227,-2.16684913635254,-0.05035758391023,0.9253654674607877,0.3526363324145877,0.1735994767169561
1013,274.835152,-3.05708432197571,-2.24069452285767,0.45284676551819,0.9287642459480131,0.35333141988637445,0.1734898041705694
1014,274.843485,-2.76542782783508,-2.34055185317993,0.8348702788353,0.928578084828902,0.3550237538863204,0.1760138054283296
1015,274.851818,-2.63952136039734,-2.57583141326904,1.25759482383728,0.9281963231612225,0.35438299179077143,0.1749012786514908
1016,274.860151,-2.18289637565613,-2.40047693252563,1.64580452442169,0.9305906295776366,0.3553249154772082,0.1739320827990163
1017,274.86848399999997,-2.0308244228363,-2.59194278717041,2.0475378036499,0.9300218309674949,0.35258555898861016,0.17442058543769692
1018,274.87681699999996,-2.05023980140686,-2.65984582901001,2.35931396484375,0.9298729409976877,0.35069056919642855,0.1724605535974306
1019,274.88515,-1.90695428848267,-2.83530378341675,2.70103430747986,0.9302172368886521,0.3500856915298775,0.1707478202119163
1020,274.893483,-2.08143854141235,-2.96194052696228,3.01982879638672,0.9350519764180082,0.3498355466492326,0.1709138373939357
1021,274.901816,-2.33104920387268,-3.20571112632751,3.32894110679626,0.9332970210484092,0.34681495355099995,0.17299945257147958
1022,274.910149,-2.59671998023987,-3.17179799079895,3.73041892051697,0.9333448020779356,0.3452920913696286,0.16923753582701428
1023,274.918482,-2.96290135383606,-3.48042416572571,4.00672006607056,0.9351185389927459,0.34289527912529183,0.17132026808602446
1024,274.926815,-3.32833933830261,-3.44033741950989,4.18151044845581,0.9348205644257214,0.3388880953496816,0.1670409708606949
1025,274.93514799999997,-3.76612496376038,-3.45671772956848,4.25862264633179,0.9346959055686479,0.339440910183653,0.16188503528127857
1026,274.94348099999996,-3.98161816596985,-3.38095116615295,4.48643636703491,0.9348199805434867,0.3407820876763796,0.16162136379553366
1027,274.951814,-4.08062887191772,-3.21639204025269,4.38140439987183,0.9339968039064989,0.34134789389006936,0.16274305022492652
1028,274.960147,-3.64978504180908,-2.96853590011597,4.22020149230957,0.936982680340202,0.3434436418572255,0.16078891802807244
1029,274.96848,-3.20434069633484,-2.56123161315918,3.98914861679077,0.937495037001006,0.34572272884602445,0.16257914961600817
1030,274.976813,-2.45988893508911,-2.24000334739685,3.74750375747681,0.939405499672403,0.34426912969472445,0.16335454522346937
1031,274.985146,-1.52248442173004,-1.69618737697601,3.20271396636963,0.9346424803441887,0.3441990881550071,0.16019430695747855
1032,274.993479,-0.45384585857391,-1.32407665252686,2.65209794044495,0.9324559386895621,0.3440546016303857,0.1606351137161255
1033,275.001812,0.8287997841835,-0.72716253995895,2.03084993362427,0.9286836701996468,0.3446878705705918,0.15714218421858162
1034,275.01014499999997,1.95354616641998,-0.32466042041779,1.26004099845886,0.923979331036003,0.34347719075728467,0.15508090963168977
1035,275.01847799999996,3.05133414268494,0.28021973371506,0.35033869743347,0.9215838568551202,0.3449775491442,0.15460123821180713
1036,275.026811,4.20166969299316,0.59163761138916,-0.63697481155396,0.9189104547305978,0.341791401104051,0.15173931511081018
1037,275.035144,5.17542028427124,1.14042258262634,-1.51882171630859,0.9144973754882816,0.34226680288509487,0.1490341278971459
1038,275.043477,6.31238412857056,1.67814207077026,-2.59374856948853,0.9122320097319938,0.34015161650521425,0.14938144051298774
1039,275.05181,7.55823516845703,2.0685031414032,-3.59226846694946,0.9061398798105662,0.3398611837503857,0.1490341278971459
1040,275.060143,8.53580379486084,2.58936882019043,-4.57557344436646,0.9018327751938173,0.34117516206235304,0.14587725911821633
1041,275.068476,9.87650489807129,3.24978113174438,-5.59058952331543,0.8974521014155173,0.34184480200008466,0.14913573557016835
1042,275.07680899999997,11.36435890197754,3.81293559074402,-6.74725198745728,0.8951885846196386,0.3403976498817908,0.1431198874298408
1043,275.08514199999996,13.18168926239014,4.54414558410645,-7.93285751342773,0.8961236720182459,0.3418858440554867,0.14602180646390306
1044,275.093475,15.01231384277344,5.18506526947021,-9.08808612823486,0.8957956275161427,0.34697148264670813,0.1410574694069061
1045,275.101808,17.00948715209961,5.9618182182312,-10.35312461853027,0.8928915919089805,0.347990478788103,0.14563758762515305
1046,275.110141,18.98740386962891,6.64345169067383,-11.49373912811279,0.8929657449527661,0.3501084142801714,0.1453607179680653
1047,275.118474,20.65809631347656,7.16700744628906,-12.61856555938721,0.8953170387112367,0.3504080918370459,0.1458599129501653
1048,275.126807,22.41946220397949,7.71033763885498,-13.74907684326172,0.8976237627924702,0.35308414576005,0.1482119852182816
1049,275.13514,24.00424194335938,7.95836162567139,-14.78566074371338,0.9015133916115275,0.35578469840847754,0.14403866261852039
1050,275.143473,25.34182357788086,8.31562995910645,-15.92091369628906,0.9009141338114837,0.3511672117272204,0.14610745468918163
1051,275.15180599999997,26.31468200683594,8.4685230255127,-16.67653465270996,0.9024331034446245,0.35177435193743056,0.14996641752671225
1052,275.160139,26.98892021179199,8.52492427825928,-17.42467308044434,0.9069007756758715,0.35225272178649897,0.14786950179508773
1053,275.168472,27.12107086181641,8.54080677032471,-18.0562744140625,0.9135270605281907,0.35565512520926323,0.1525237365644806
1054,275.176805,27.33915138244629,8.50192451477051,-18.70342063903809,0.92026914869036,0.35553975981108976,0.15040716346429284
1055,275.185138,27.23462295532227,8.14783382415771,-19.32356834411621,0.9235145607773142,0.35706683081023566,0.15424216280178163
1056,275.193471,27.09971046447754,8.13658714294434,-19.67237854003906,0.9234705749823122,0.3578536364496969,0.1546124536163949
1057,275.201804,26.89538383483887,7.7415132522583,-20.09575653076172,0.9282858517705174,0.358939170837402,0.1528763527772867
1058,275.210137,26.53252029418945,7.51061248779297,-20.36349296569824,0.930849678662358,0.3618961207720694,0.15693469923369693
1059,275.21846999999997,26.17904281616211,7.22398996353149,-20.632080078125,0.9323698160599694,0.3635957046430938,0.15501525937294489
1060,275.22680299999996,25.65258979797363,6.97635078430176,-20.59875679016113,0.9326523177477776,0.3635957532999469,0.15518065618008978
1061,275.235136,25.06535911560059,6.51483297348022,-20.45539474487305,0.9327556649032908,0.3640890608028489,0.1583847464347367
1062,275.243469,24.0869312286377,6.05596590042114,-20.12398529052734,0.9349078548197847,0.364125869712051,0.1643447121795347
1063,275.251802,22.95240783691406,5.63931131362915,-19.65901756286621,0.9333925831074611,0.36268331566635403,0.16052524654232755
1064,275.260135,21.92507171630859,5.04931163787842,-18.96487045288086,0.9346606780071641,0.3673254957004469,0.15751535795172855
1065,275.268468,20.59996604919434,4.40311574935913,-18.14024353027344,0.9333276748657224,0.3672110791109051,0.15534237939484286
1066,275.276801,19.26653671264648,4.12422657012939,-17.14299964904785,0.932347531221351,0.3687588049440969,0.15272456772473364
1067,275.28513399999997,18.28138732910156,3.67316007614136,-16.07283782958984,0.9360548914695276,0.3704124810744306,0.15357169569755103
1068,275.29346699999996,17.0398006439209,3.27505016326904,-14.88921451568604,0.934443279188506,0.36964287563246123,0.15152921482008366
1069,275.3018,16.12962341308594,2.86573457717896,-13.6633939743042,0.9350071147996549,0.37204725401742145,0.15295497008732345
1070,275.310133,15.34495449066162,2.65743923187256,-12.19577217102051,0.933855699033153,0.3719287502522367,0.1493137588306347
1071,275.318466,14.43416404724121,2.40257740020752,-10.84779834747314,0.9341398550539601,0.3714059810249173,0.1484755715545347
1072,275.326799,13.73928642272949,2.37244200706482,-9.396071434021,0.9308633025811642,0.36815913356080304,0.1462360304229112
1073,275.335132,12.91778659820557,2.34006547927856,-8.22317028045654,0.9267983144643357,0.3651265222199112,0.14329765524182958
1074,275.343465,12.06944179534912,2.49823355674744,-6.91097784042358,0.9263298462848275,0.36405161935455915,0.14446487232130406
1075,275.351798,11.38049602508545,2.75347948074341,-5.81625127792358,0.9232477265961315,0.3644879253543153,0.1415392573998898
1076,275.36013099999997,10.47418689727783,2.92788648605347,-4.68125772476196,0.9237599859432296,0.3625642280189357,0.1405662663128908
1077,275.36846399999996,9.72777557373047,3.33429527282715,-3.5120325088501,0.9278506648783786,0.36007652477342245,0.14030743618400712
1078,275.376797,8.64781379699707,3.6350953578949,-2.53043007850647,0.9360109056745254,0.3591912863205887,0.14189288324239285
1079,275.38513,7.72759771347046,4.24463796615601,-1.45706593990326,0.9488119397844592,0.35773126446470915,0.1442879924968796
1080,275.393463,6.68978595733643,4.53932952880859,-0.41456642746925,0.9659965670838653,0.3576794205879673,0.1492756361864051
1081,275.401796,5.08432292938232,4.81477165222168,0.4844163954258,0.9821438302799143,0.3533218101579316,0.15521321977887856
1082,275.410129,3.4379940032959,4.80409097671509,1.4617532491684,0.9915969809707326,0.3504329798172928,0.15874663177801632
1083,275.418462,1.8428543806076,4.69844436645508,2.76868104934692,0.9940814971923826,0.34503472094633164,0.16039650050961224
1084,275.42679499999997,-0.45647132396698,4.51153802871704,4.02421426773071,0.9936386225174887,0.33785591320115715,0.15539415028630507
1085,275.43512799999996,-2.33385419845581,3.03317403793335,4.80433464050293,0.9997281249688592,0.30220888098891935,0.1657092449616408
1086,275.443461,-11.79959678649902,-0.35621726512909,7.32336807250977,0.9979222745311499,0.2666765816357673,0.23840023546802752
1087,275.451794,-26.83808135986328,-1.84836316108704,9.16456317901611,0.9927573495981642,0.23872516593154589,0.28092036441880813
1088,275.460127,-36.1240348815918,-2.94959807395935,10.8729362487793,0.971563981503856,0.2764353216910847,0.2270773965485245
1089,275.46846,-38.78220748901367,-4.27447080612183,11.91039276123047,0.9788939417624958,0.35415625085636016,0.2368980767775551
1090,275.476793,-40.85108947753906,-8.30042266845703,14.78413963317871,0.9708536887655449,0.34866362201924184,0.280024616085753
1091,275.485126,-45.32317733764648,-11.71939468383789,16.61689758300781,0.956963714288205,0.2812811306544714,0.3453623761936112
1092,275.493459,-55.79608154296875,-15.22877407073975,18.17385864257812,0.948349407741002,0.18393748876999794,0.3664306961760224
1093,275.50179199999997,-68.03496551513672,-18.0208911895752,21.11820602416992,0.9430279050554551,0.20230215422961223,0.3576402031645479
1094,275.51012499999996,-73.67223358154297,-22.36664199829102,21.21402168273926,0.946448968381298,0.28765240494085814,0.38213004871290507
1095,275.518458,-75.01657104492188,-24.04935646057129,21.36799240112305,0.9378929527438418,0.3027286578197867,0.387774073347753
1096,275.526791,-73.55199432373047,-24.76149940490723,21.62414932250977,0.9401145273325398,0.2823047735253163,0.3884927350647592
1097,275.535124,-72.6089859008789,-25.05129814147949,22.4633731842041,0.9347233480336714,0.2556160031532755,0.37353119071649077
1098,275.543457,-70.8961181640625,-24.29103469848633,22.41759872436523,0.9165609126188317,0.25317082599717755,0.34404088039787445
1099,275.55179,-66.81584167480469,-22.94107627868652,20.67809867858887,0.9176751545497347,0.2702886717660081,0.3192172488387755
1100,275.560123,-59.82030868530273,-21.67809104919434,19.65240669250488,0.9248208999633785,0.2986227979465408,0.2985811476804775
1101,275.56845599999997,-50.82600021362305,-20.20163917541504,19.70687294006348,0.919803210667201,0.3228477312594041,0.2700647529290643
1102,275.57678899999996,-40.80897903442383,-18.48132514953613,19.83196640014648,0.9064505051593387,0.3268392475283877,0.2536367640203357
1103,275.585122,-30.87934112548828,-16.3974781036377,19.47305870056152,0.8902571152667611,0.31911708870712546,0.24168199422408163
1104,275.593455,-22.15272331237793,-14.22105026245117,18.76468658447266,0.8791422357364581,0.3071819519510071,0.2299910418841306
1105,275.601788,-15.68656444549561,-11.87917327880859,17.66302490234375,0.8659484435100948,0.2949065821511408,0.21932701675259386
1106,275.610121,-10.98268508911133,-9.81799125671387,16.32016944885254,0.856482252782705,0.2880346045202143,0.215127808707101
1107,275.618454,-7.91395568847656,-7.96719551086426,15.09371948242188,0.8501649389461591,0.28955250370259183,0.21058393984424795
1108,275.626787,-5.85349416732788,-6.61850261688232,13.98736190795898,0.8442822281195194,0.29360452476812854,0.21359956994348672
1109,275.63512,-4.03667593002319,-5.16640472412109,13.05625534057617,0.8371325901576449,0.29929387326143264,0.20340419545465613
1110,275.64345299999997,-3.21960687637329,-3.96640276908875,12.30770492553711,0.8301826399199816,0.2976707779631326,0.1934175953573112
1111,275.651786,-3.03859162330627,-2.80341458320618,11.12904071807861,0.8206215683294805,0.29469436528731324,0.1865133947255663
1112,275.660119,-3.2845139503479,-1.3856920003891,9.95355319976807,0.8153947518796336,0.2940454774973347,0.1775610568572061
1113,275.668452,-2.84891772270203,-0.28704589605331,8.48454856872559,0.8128152574811662,0.3088005464904163,0.17068416488413876
1114,275.676785,-2.23246026039124,0.67473030090332,6.89646673202515,0.8139061927795408,0.3220495155879428,0.1678576396436112
1115,275.685118,-0.79286295175552,1.67004811763763,5.16860675811768,0.8127578423947703,0.3283689946544418,0.16063701133338773
1116,275.693451,1.34171223640442,2.81897497177124,3.0920352935791,0.8092701678373377,0.33346592163553057,0.16043313911982957
1117,275.701784,5.06247425079346,4.00817918777466,0.52206933498383,0.8090022632053918,0.33839778024323164,0.16018262931278776
1118,275.71011699999997,7.826340675354,5.32176780700684,-1.53221809864044,0.8086151492838959,0.32973530341167856,0.16290219462647754
1119,275.71844999999996,9.71054935455322,6.15238571166992,-3.93263053894043,0.8066128711311183,0.31110950878688265,0.16858977930886426
1120,275.726783,10.99927806854248,7.27869510650635,-6.45696496963501,0.8038309642246795,0.29880689114940406,0.17530656590753674
1121,275.735116,11.06177806854248,8.69826221466064,-8.6151704788208,0.8036344878527582,0.28983539464522345,0.17123542269881936
1122,275.743449,10.03856754302979,9.35831737518311,-10.54228401184082,0.8103565293915418,0.2757731019234173,0.18005767647100918
1123,275.751782,7.34253883361816,10.50040340423584,-11.93582439422607,0.8013963212772296,0.25421636445181733,0.15870413001702752
1124,275.760115,2.89497303962708,11.31886959075928,-13.7996072769165,0.7980518924946683,0.2593005190090255,0.15785113889343877
1125,275.768448,-0.29375693202019,11.76371383666992,-15.90789318084717,0.8070151659907122,0.29373657946683873,0.16328804346979897
1126,275.77678099999997,-2.68000555038452,12.19951248168945,-17.12738609313965,0.8178025849011479,0.3274998129630571,0.17088376745885714
1127,275.78511399999996,-3.80208897590637,12.32835292816162,-17.79855728149414,0.8204772521038448,0.3306761079904979,0.16748803002493673
1128,275.793447,-4.66829872131348,12.82046794891357,-18.40688133239746,0.8195296112371948,0.32355118770988567,0.16596184701335712
1129,275.80178,-6.46265363693237,13.30795860290527,-19.95375442504883,0.8284090976325836,0.3168686312072132,0.1719072157022908
1130,275.810113,-8.10679721832275,13.50169658660889,-21.88629341125488,0.8421063909725265,0.3120488536601163,0.17091291291373162
1131,275.818446,-10.20300197601318,13.41674518585205,-23.08048820495605,0.8591465074188857,0.3194883648230102,0.17683058368916427
1132,275.826779,-12.42227172851562,13.51336193084717,-23.79277229309082,0.8668410048192857,0.327408848976602,0.18013232824753775
