,timestamp,GyrY,GyrX,GyrZ,AccY,AccX,AccZ
192,268.002092,-2.3932147026062,-0.61495935916901,-1.44098007678986,0.9843343617964765,0.11110199957477755,0.10631336241352346
193,268.010425,-2.43186664581299,-0.49331739544868,-1.41680026054382,0.9841944246876,0.11285106746517856,0.10408154555729489
194,268.018758,-2.39101195335388,-0.50246167182922,-1.41782462596893,0.9830183885535418,0.11198531608192244,0.10942237717764693
195,268.027091,-2.2491602897644,-0.36806377768517,-1.34515714645386,0.9804702291683274,0.11549829220285204,0.10633800710950612
196,268.035424,-2.29022002220154,-0.34162986278534,-1.42443335056305,0.9848869090177571,0.11260764939444387,0.10676636987802958
197,268.04375699999997,-2.42720508575439,-0.270447909832,-1.35558223724365,0.9852574796092755,0.11469913988697245,0.10667892134919489
198,268.05208999999996,-2.39577627182007,-0.16824708878994,-1.33690929412842,0.9828669684273857,0.11264661136938571,0.10685050974086836
199,268.060423,-2.41438508033752,-0.16362373530865,-1.20790338516235,0.9860844514807877,0.11245373560457855,0.10554132412891021
200,268.068756,-2.13525366783142,-0.27444371581078,-1.3405464887619,0.9861710606789101,0.11379662825136734,0.10416536915058978
201,268.077089,-2.08835434913635,-0.33397123217583,-1.25829935073853,0.98825639607955,0.11159883469951427,0.10401473969829285
202,268.085422,-2.05906438827515,-0.36518216133118,-1.40851390361786,0.9881242440671336,0.11394330433436836,0.10389734287651224
203,268.093755,-1.9233341217041,-0.48106095194817,-1.41422581672668,0.9879217342454562,0.11214152890808775,0.10255030223301428
204,268.102088,-1.96202504634857,-0.514628469944,-1.37973642349243,0.9859759466988702,0.11353591266943469,0.10783755049413571
205,268.110421,-2.07403588294983,-0.53158503770828,-1.35099709033966,0.9848365005181754,0.11270997475604591,0.10869721977078163
206,268.11875399999997,-1.996706366539,-0.62261801958084,-1.43065738677979,0.9855598332930582,0.11196591416183775,0.10351997248980509
207,268.12708699999996,-1.83226311206818,-0.66562438011169,-1.31744265556335,0.9830209187098907,0.1124261228405704,0.10575367479908265
208,268.13542,-1.62740039825439,-0.58655315637589,-1.40230250358582,0.9800793200123071,0.11451954744300101,0.10345423708156631
209,268.143753,-1.38398838043213,-0.46780559420586,-1.43672800064087,0.9843167480157345,0.1124447705794357,0.10260588052321427
210,268.152086,-1.38962340354919,-0.32936063408852,-1.43214309215546,0.9818492616925918,0.11407037170565816,0.10516476874448774
211,268.160419,-1.36823546886444,-0.31896123290062,-1.38857316970825,0.9821460684951469,0.1104230418497204,0.10746588512342754
212,268.168752,-1.42194855213165,-0.21007513999939,-1.25025629997253,0.9835678217362387,0.11157608762079387,0.10873593846145918
213,268.177085,-1.58103859424591,-0.22602000832558,-1.36913216114044,0.9869196950172887,0.1118552928068204,0.10790496456379794
214,268.18541799999997,-1.8408567905426,-0.26433891057968,-1.38456475734711,0.9867268192524815,0.11072026223552449,0.10307459198698674
215,268.19375099999996,-1.77788400650024,-0.30956083536148,-1.40232801437378,0.9868357132892224,0.11186985337004388,0.10419897887171531
216,268.202084,-1.66525816917419,-0.47766703367233,-1.44477069377899,0.9869967674722478,0.10877173774096427,0.10242149537923366
217,268.210417,-1.51147031784058,-0.65491753816605,-1.40196943283081,0.9855584709011774,0.10936647045369081,0.10000300042483265
218,268.21875,-1.33096694946289,-0.67292445898056,-1.29902601242065,0.9861893556555917,0.10883109910147551,0.0978694825756306
219,268.227083,-1.32266771793365,-0.62940573692322,-1.38081204891205,0.9862093049652724,0.10943754595153163,0.10027698716338775
220,268.235416,-1.20919680595398,-0.76493066549301,-1.38122200965881,0.986963875439702,0.11246975587338776,0.10259066309247653
221,268.243749,-1.19472479820251,-0.76667249202728,-1.35097169876099,0.9853245287525408,0.11275885056476223,0.10175485392006121
222,268.252082,-1.20637929439545,-0.65248417854309,-1.45214784145355,0.9850342419682714,0.11481971156840408,0.10030834042296122
223,268.26041499999997,-1.20773684978485,-0.83098983764648,-1.50896024703979,0.9832926185763612,0.11388305498629184,0.1020383774017806
224,268.26874799999996,-1.16734302043915,-0.83086180686951,-1.41218960285187,0.982992308480399,0.1149070141266806,0.10425981210202549
225,268.277081,-1.1313807964325,-0.70588994026184,-1.38145267963409,0.9851806017817284,0.11256700875807754,0.10195542963183672
226,268.285414,-1.14541745185852,-0.70368713140488,-1.4121128320694,0.9822261576749837,0.11328389449995406,0.1029111171255306
227,268.293747,-1.10666298866272,-0.73119670152664,-1.27856004238129,0.9826442173549101,0.11320092240158366,0.1019974569885102
228,268.30208,-1.21964740753174,-0.4092001914978,-1.31265270709991,0.9840987653148416,0.11202812194824184,0.1022113707600806
229,268.310413,-1.36229300498962,-0.5138344168663,-1.26567614078522,0.9838721216941367,0.11151578961586428,0.10673891524879285
230,268.318746,-1.50337624549866,-0.4576111137867,-1.30660772323608,0.9852581608052152,0.11161322496375306,0.10687233233938366
231,268.32707899999997,-1.50019991397858,-0.64838594198227,-1.25776135921478,0.9864696191281682,0.11234099767646019,0.10337405058802347
232,268.33541199999996,-1.47630202770233,-0.77527886629105,-1.22331023216248,0.9834352804689989,0.11169512661135916,0.10165682252572551
233,268.343745,-1.61149394512177,-0.92888736724854,-1.29556787014008,0.9824751834480131,0.10921221606585407,0.10268159058629285
234,268.352078,-1.64945411682129,-0.77727669477463,-1.3573237657547,0.982412513421506,0.10848148744933467,0.10456470810637143
235,268.360411,-1.62716996669769,-0.69257056713104,-1.38534605503082,0.9822689757055163,0.10672651991552244,0.10359318888917245
236,268.368744,-1.61149382591248,-0.5839661359787,-1.30525016784668,0.9814513459497571,0.10754002600300101,0.10727612339720409
237,268.377077,-1.74384260177612,-0.47618147730827,-1.29472279548645,0.9830754143851141,0.10953063867529998,0.104922360303451
238,268.38541,-1.72476005554199,-0.38432878255844,-1.29052186012268,0.9873149832900693,0.11006455032192958,0.10454699701192448
239,268.393743,-1.58623850345612,-0.48937281966209,-1.25450849533081,0.9875083456234061,0.10901899970307653,0.106482700425751
240,268.40207599999997,-1.68669736385345,-0.60755681991577,-1.3175961971283,0.9889589037214009,0.11221425873892651,0.10879523900090408
241,268.410409,-1.74018001556396,-0.78055548667908,-1.42243552207947,0.9899195846246215,0.11217398302895713,0.10728117154569082
242,268.418742,-1.63062787055969,-0.97558218240738,-1.45727074146271,0.9894261068227336,0.11014445703856837,0.09647793307596327
243,268.427075,-1.74092280864716,-0.99384516477585,-1.37474179267883,0.9899353494449541,0.11144347336827448,0.09881143059049285
244,268.435408,-1.78848850727081,-1.32601058483124,-1.2274341583252,0.9890017217519337,0.1100306608239,0.10104403812058163
245,268.443741,-1.72235202789307,-1.42262721061707,-1.34815382957458,0.9870978764125274,0.11198609459156937,0.09984121638901428
246,268.452074,-1.77662897109985,-1.41683864593506,-1.36134541034698,0.9817767629818039,0.11002225535256531,0.10365539667557654
247,268.460407,-1.82155621051788,-1.17217147350311,-1.27310431003571,0.9812770571027479,0.1089842587101214,0.10374148281253164
248,268.46873999999997,-1.9566969871521,-0.96408140659332,-1.17341387271881,0.9810639400871428,0.11257860125327551,0.10924026674153878
249,268.47707299999996,-1.98707556724548,-0.87102484703064,-1.21818745136261,0.9808278570369796,0.11227161300425613,0.10516229940920509
250,268.485406,-1.93705105781555,-0.79720467329025,-1.16460239887238,0.982851300920759,0.11127941462458366,0.1061660902840755
251,268.493739,-1.78898787498474,-0.7127673625946,-1.23167324066162,0.9809612741275714,0.11285899853219795,0.10504857617981529
252,268.502072,-1.73462152481079,-0.78903365135193,-1.35611999034882,0.984344968990404,0.11061566216605,0.10571247460890816
253,268.510405,-1.55921518802643,-0.77202588319778,-1.294184923172,0.9853735748602417,0.11262491041300204,0.10173449710923775
254,268.518738,-1.61759006977081,-0.85388892889023,-1.13399338722229,0.9869038328832509,0.11088445478556122,0.1007364234145806
255,268.527071,-1.59325659275055,-0.75189298391342,-1.26941573619843,0.9852877441717653,0.1110483189018408,0.10293463054968367
256,268.53540399999997,-1.69381833076477,-0.68895888328552,-1.25801742076874,0.9852159266569173,0.11198175196745,0.1021723601282857
257,268.54373699999996,-1.74993884563446,-0.68601328134537,-1.26744365692139,0.984002619373555,0.1124349662235806,0.10297920022692039
258,268.55207,-1.82562863826752,-0.82041108608246,-1.28429758548737,0.9844647621621887,0.11444303454185,0.10572956532848163
259,268.560403,-1.8608615398407,-0.84591019153595,-1.38581991195679,0.9838350451722438,0.11137793258744795,0.10330861928511631
260,268.568736,-1.78574776649475,-0.7224622964859,-1.30809342861176,0.9840367764842755,0.10885591409644285,0.10867832874765203
261,268.577069,-1.84355878829956,-0.59823322296143,-1.32125902175903,0.9845963302923704,0.10903207623228775,0.10587199610106837
262,268.585402,-1.71094143390656,-0.55193561315536,-1.36361241340637,0.9842698428095601,0.10858219497057855,0.10493105771590204
263,268.593735,-1.55382359027863,-0.707106590271,-1.30131852626801,0.9873971160577265,0.11138630156614387,0.10681821375477041
264,268.602068,-1.32335948944092,-0.71042358875275,-1.25783812999725,0.9874011059196632,0.11304222807592244,0.10391018828567143
265,268.61040099999997,-1.25765883922577,-0.69008588790894,-1.30284237861633,0.9842374373455438,0.11364322535845713,0.10390762163668264
266,268.61873399999996,-1.22331011295319,-0.71334362030029,-1.44397675991058,0.9846578325544081,0.11630436595605305,0.107112283609351
267,268.627067,-1.1927524805069,-0.68877953290939,-1.36941373348236,0.9849753671762898,0.11492668365945612,0.10721574024278265
268,268.6354,-1.24933421611786,-0.65922069549561,-1.29930770397186,0.9845467976161407,0.11125744605550916,0.105516655104501
269,268.643733,-1.22809994220734,-0.71895313262939,-1.24159872531891,0.989022254943848,0.10906737677904998,0.1077326828119704
270,268.652066,-1.2677766084671,-0.95350271463394,-1.14477705955505,0.9899151081941562,0.10859730292339694,0.10612139896470714
271,268.660399,-1.50084042549133,-0.96684765815735,-1.15338337421417,0.9896624818140143,0.10715279043937245,0.10874868655691325
272,268.668732,-1.48398637771606,-0.89307880401611,-1.0302814245224,0.9894660054420937,0.10406655924660815,0.11165140842904897
273,268.67706499999997,-1.49241316318512,-1.04433059692383,-1.15287101268768,0.9871063427049286,0.10560422527546735,0.10663247838312245
274,268.68539799999996,-1.57893824577332,-1.20664811134338,-1.11785638332367,0.9872366457569357,0.10483738110989897,0.1071779095396704
275,268.693731,-1.35445511341095,-1.39043033123016,-1.22095358371735,0.9871782575334815,0.10815121689621325,0.10407597434763978
276,268.702064,-1.33795952796936,-1.38859891891479,-1.24164998531342,0.9847349050093673,0.10859276567186632,0.10358226542570205
277,268.710397,-1.10819983482361,-1.36330485343933,-1.24277710914612,0.984808084916095,0.10822786360370919,0.10177129385422652
278,268.71873,-1.10271835327148,-1.4954229593277,-1.35619688034058,0.9854333254755754,0.10836514891410408,0.1045568256962051
279,268.727063,-1.18675875663757,-1.50456738471985,-1.45611810684204,0.9852759692133692,0.10839799228979591,0.1085555066867755
280,268.735396,-1.31093645095825,-1.35357129573822,-1.4115492105484,0.9830322070997591,0.1065298854088296,0.10931196261425406
281,268.743729,-1.44021165370941,-0.96515715122223,-1.30179238319397,0.9801267117870102,0.10608396968063061,0.11307966952421224
282,268.75206199999997,-1.5070903301239,-0.5530241727829,-1.24982094764709,0.9820299732441806,0.1077044375088755,0.1108630092776551
283,268.76039499999996,-1.62186765670776,-0.91638761758804,-1.21934008598328,0.981729468520807,0.1081982680729459,0.1109019104315306
284,268.768728,-1.64891648292542,-0.92268890142441,-1.39961290359497,0.9795849663870673,0.10917142945892959,0.10927320743093673
285,268.777061,-1.79758155345917,-0.73060762882233,-1.32830309867859,0.9808567592075897,0.11160851741323671,0.11177149354195101
286,268.785394,-1.82137668132782,-0.6762797832489,-1.47148633003235,0.9836002272002551,0.11130913179747959,0.10878358568463979
287,268.793727,-1.83984482288361,-0.75957733392715,-1.47133278846741,0.9855248976726917,0.10981799388418366,0.10584896924544387
288,268.80206,-1.98154270648956,-0.82855647802353,-1.57942497730255,0.9854530801578448,0.11073725564139184,0.10452286321289693
289,268.810393,-1.94655394554138,-0.84356647729874,-1.50924217700958,0.9851300959684408,0.1098797759231255,0.10379296176287552
290,268.81872599999997,-1.98015964031219,-0.7128569483757,-1.39497685432434,0.9866017711405847,0.10758189522490204,0.10055082184927755
291,268.82705899999996,-2.02080965042114,-0.81889998912811,-1.44046795368195,0.9856546168424642,0.11134527167495406,0.10330009217165
292,268.835392,-1.95321369171143,-0.74720567464828,-1.40494084358215,0.9862280865104827,0.10921003867168774,0.10157790719246428
293,268.843725,-1.92565274238586,-0.86257219314575,-1.30209970474243,0.9872775175133529,0.10966934719864181,0.10614274715890713
294,268.852058,-1.91125750541687,-0.79925382137299,-1.35012638568878,0.984104896078304,0.10949114147497653,0.10324695888830712
295,268.860391,-1.87278473377228,-0.68729394674301,-1.16447424888611,0.9856427445703623,0.1104112547271102,0.10425599253907447
296,268.868724,-1.71127414703369,-0.61323040723801,-1.25070464611053,0.9845807600994498,0.11066605850141836,0.10067827847539183
297,268.877057,-1.59271895885468,-0.68916380405426,-1.19808030128479,0.9862921189288703,0.11014712100126325,0.10469402585710816
298,268.88539,-1.56878244876862,-0.7951939702034,-1.16320657730103,0.9865440641130725,0.11063601289476632,0.10416372698180508
299,268.89372299999997,-1.69046247005463,-0.84981626272202,-1.19487833976746,0.9868395085237458,0.11070695458626223,0.10605479989733059
300,268.902056,-1.65347564220428,-0.81682509183884,-1.20427882671356,0.9857920237949918,0.109622794754651,0.10396894143552243
301,268.910389,-1.83787250518799,-0.88372945785522,-1.22471904754639,0.9821107436199581,0.10872404186093061,0.10691989441307244
302,268.918722,-1.908811211586,-0.75108623504639,-1.28971517086029,0.9816866504902744,0.10945995243228163,0.10672223811246938
303,268.927055,-1.97326958179474,-0.79906171560287,-1.2304310798645,0.9832297539224427,0.11070475286366938,0.10486774298609489
304,268.935388,-2.00608134269714,-0.61288464069366,-1.33811342716217,0.9824872503475265,0.1105660321761153,0.10476688949429286
305,268.943721,-1.89673411846161,-0.53547841310501,-1.22740864753723,0.9817320959908621,0.10854017977811836,0.10498277995051121
306,268.952054,-1.92078602313995,-0.56216841936111,-1.35824620723724,0.9837703315579163,0.10959414803251939,0.10582403260834387
307,268.96038699999997,-1.98999547958374,-0.53125202655792,-1.33493709564209,0.9846321417360887,0.10938077556843673,0.1047931033737806
308,268.96871999999996,-1.94253253936768,-0.5164982676506,-1.32953262329102,0.985216607852858,0.11027016201797755,0.10160722294632243
309,268.977053,-1.83438885211945,-0.47856351733208,-1.2317373752594,0.9877871493903959,0.11366812550291734,0.10235574780678264
310,268.985386,-1.84711921215057,-0.50668799877167,-1.25268983840942,0.9864093819443059,0.10964033555011325,0.10103962251118265
311,268.993719,-1.84020340442657,-0.68117213249207,-1.2082234621048,0.9880854158985367,0.11188881737845305,0.10478506282884285
312,269.002052,-1.82829284667969,-0.70468598604202,-1.18447911739349,0.9858998473809693,0.11211051016437754,0.10696164199284182
313,269.010385,-1.86492109298706,-0.56798285245895,-1.17825472354889,0.9830064189677337,0.11236301490238775,0.10490644951255917
314,269.018718,-1.85001373291016,-0.41831886768341,-1.2119117975235,0.986054381545709,0.11080465754684184,0.10822543076106529
315,269.027051,-1.81256568431854,-0.53757876157761,-1.15176963806152,0.9862843338324102,0.11018085236452041,0.10706990349049489
316,269.03538399999996,-1.80687940120697,-0.42154625058174,-1.22825384140015,0.985170091901507,0.11119713588636734,0.10602796564296836
317,269.043717,-2.00359678268433,-0.58204507827759,-1.14697992801666,0.9867166986270826,0.10979900554734794,0.10595336252329285
318,269.05205,-1.90974605083466,-0.78936666250229,-1.08840000629425,0.9860857165589622,0.11095301229126632,0.10424924140073774
319,269.060383,-1.9207090139389,-0.84704995155334,-1.19672274589539,0.9861182193366846,0.11091754144551835,0.10240232457919998
320,269.068716,-1.78797578811646,-0.86602997779846,-1.18038070201874,0.9857810273462408,0.11150486615239386,0.10345258274856835
321,269.077049,-1.66180026531219,-0.94989109039307,-1.15171849727631,0.9849231097162989,0.11112194888445816,0.10749737827145305
322,269.085382,-1.59212958812714,-0.97883516550064,-1.15924894809723,0.9845044661541378,0.1125446509341806,0.10372138753229285
323,269.093715,-1.59328210353851,-0.95247811079025,-1.2837085723877,0.9862353850384141,0.1127091232611204,0.10585825054012958
324,269.10204799999997,-1.58534181118011,-0.87302273511887,-1.35645294189453,0.9820151815609061,0.11400031800172755,0.10506816056309898
325,269.11038099999996,-1.73369944095612,-0.74525898694992,-1.16214334964752,0.9837468789548286,0.10991410333283061,0.10761597935034285
326,269.118714,-1.69819808006287,-0.67797040939331,-1.19334161281586,0.9816042257814989,0.10920080603385407,0.10647559652523163
327,269.127047,-1.75447249412537,-0.47072559595108,-1.17753744125366,0.9827485376474806,0.11054396629333468,0.10578190793796427
328,269.13538,-1.79317593574524,-0.5930335521698,-1.07797503471375,0.9871518855192224,0.10915903412565917,0.10542142147920612
329,269.143713,-1.80255079269409,-0.57566714286804,-1.26780235767365,0.9870072773524692,0.11032621471249286,0.10605621094606325
330,269.152046,-1.57586443424225,-0.75025367736816,-1.18248105049133,0.9861696009733235,0.11173892994316224,0.10592213698795815
331,269.160379,-1.48042595386505,-0.79710215330124,-1.19157409667969,0.9885443473348815,0.11007615498134081,0.10407944114840714
332,269.16871199999997,-1.58956825733185,-1.01021265983582,-1.20043694972992,0.9892660257767651,0.11295170200114388,0.10638781956263979
333,269.17704499999996,-1.6872866153717,-1.050452709198,-1.16181063652039,0.9878221823244684,0.11037212245318367,0.1046892939781653
334,269.185378,-1.76079952716827,-1.39583492279053,-1.26636779308319,0.9878478731427877,0.11184741039665407,0.10104322311829592
335,269.193711,-1.71976542472839,-1.40846288204193,-1.36372756958008,0.9868081735104928,0.10997143326973469,0.10052454714872448
336,269.202044,-1.8054575920105,-1.38175988197327,-1.31141030788422,0.9841794383769132,0.11013336327611224,0.1032364490080857
337,269.210377,-1.73518526554108,-1.23313343524933,-1.11890661716461,0.9828624919969204,0.10981630305854591,0.10305437506461632
338,269.21871,-1.70498609542847,-1.14668548107147,-1.15684139728546,0.9807390096236244,0.10954929857837957,0.10672166639444794
339,269.227043,-1.5435905456543,-1.10137367248535,-1.12264633178711,0.9809810288098396,0.1107926757968204,0.10476151291204999
340,269.235376,-1.75828909873962,-0.93864643573761,-1.20146119594574,0.9824237044976684,0.11235009650794794,0.10704968656812347
341,269.24370899999997,-1.55837023258209,-1.04474067687988,-1.17833161354065,0.9816031553307356,0.11357110373827857,0.10844736683125407
342,269.25204199999996,-1.58649432659149,-0.90424638986588,-1.20284450054169,0.9841790491220898,0.11226602963038877,0.1071981994473204
343,269.260375,-1.77931845188141,-0.95247811079025,-1.14411103725433,0.9855687861539877,0.11075087956019795,0.10601200619522448
344,269.268708,-1.80110323429108,-0.91611868143082,-1.04983770847321,0.9861352492351917,0.10946837006782957,0.10777910144961632
345,269.277041,-1.8294198513031,-0.91082918643951,-1.13734877109528,0.9865630402856937,0.10997334305121019,0.10632160975008571
346,269.285374,-1.84481430053711,-1.09673762321472,-1.25730049610138,0.986801556178502,0.11038974839813877,0.1008870102921306
347,269.293707,-1.8814936876297,-0.99525386095047,-1.01522016525269,0.9844238904057714,0.10961240651656122,0.10098070514445408
348,269.30204,-1.77898550033569,-1.13856565952301,-1.1511549949646,0.9854878211507989,0.1100515711064245,0.10458104464472551
349,269.31037299999997,-1.9497298002243,-1.13976943492889,-1.16954600811005,0.9858035068122704,0.11136563456788366,0.10291094682654592
350,269.31870599999996,-1.88769233226776,-1.07673275470734,-1.20384347438812,0.9844454940484488,0.1090973007435704,0.10665381441310917
351,269.327039,-1.85818481445312,-1.05808556079865,-1.13145768642426,0.9834298309014765,0.11071894850049692,0.10712336520759387
352,269.335372,-1.82473266124725,-0.96661722660065,-1.10966002941132,0.9816493793409694,0.11029250767766223,0.10925850089715408
353,269.343705,-1.8918160200119,-0.99389636516571,-1.18412041664124,0.9819436559871755,0.10934877152345611,0.10922854043999489
354,269.352038,-1.85180687904358,-0.80747604370117,-1.29047071933746,0.9838380618971224,0.11169682960121019,0.11125478209281428
355,269.360371,-1.72806441783905,-0.71416336297989,-1.32023465633392,0.9857412260405867,0.11251960481916122,0.10714712191601224
356,269.368704,-1.50977993011475,-0.84963709115982,-1.34154570102692,0.9841217313493998,0.11245025663959693,0.1064517303388949
357,269.377037,-1.40957689285278,-1.05649757385254,-1.28429782390594,0.9833435136444714,0.11336055337166326,0.10664879059305
358,269.38536999999997,-1.38183677196503,-0.85002118349075,-1.25207507610321,0.9849473408290316,0.11348091826146937,0.10456798027972754
359,269.39370299999996,-1.39057123661041,-0.82284450531006,-1.26664960384369,0.9842765574552571,0.11245048775964898,0.10665988435550611
360,269.402036,-1.37025916576385,-0.77095007896423,-1.19874620437622,0.9846993855067663,0.11103006041779796,0.10723808590246733
361,269.410369,-1.57540357112885,-0.78765052556992,-1.1406786441803,0.9856476102556498,0.11200689539617448,0.1060061917013051
362,269.418702,-1.66420817375183,-0.87102484703064,-1.19774723052979,0.9858707505829479,0.11024610120422958,0.10657765427414286
363,269.427035,-1.76702356338501,-0.94353878498077,-1.18045771121979,0.986417750923001,0.10878292881712652,0.10759390130334999
364,269.435368,-1.81277060508728,-1.0276814699173,-1.16680526733398,0.9867279870169499,0.1095213817090408,0.10589876953436428
365,269.443701,-1.7910498380661,-1.10634279251099,-1.18619525432587,0.9862991255156845,0.10951789057984693,0.10609058701262143
366,269.45203399999997,-1.93684589862823,-1.14478981494904,-1.19344401359558,0.9865163297069315,0.10832162535920407,0.1055844341005602
367,269.46036699999996,-1.91363954544067,-1.21205282211304,-1.18084180355072,0.9867740163997724,0.10804540040541631,0.10659062132543469
368,269.4687,-1.91597032546997,-0.99000293016434,-1.27610123157501,0.9860807535599694,0.10996897609866428,0.10692949197730202
369,269.477033,-1.90731287002563,-1.06892049312592,-1.22602534294128,0.9850259703032825,0.1099087754074408,0.10681047731516326
370,269.485366,-1.84217584133148,-1.18064975738525,-1.1716719865799,0.9860539922908856,0.11092212735390203,0.10705946659555203
371,269.493699,-1.78546583652496,-1.17124927043915,-1.27374458312988,0.9846766140996193,0.11018485439066938,0.10783340249742755
372,269.502032,-1.71507811546326,-1.17642343044281,-1.27461564540863,0.9846828421767876,0.11190947221249999,0.10424773303829897
373,269.510365,-1.6583423614502,-1.23510551452637,-1.28329873085022,0.9840675276152937,0.11038460293594693,0.10782026514715103
374,269.518698,-1.85249841213226,-1.21210408210754,-1.29608035087585,0.9853595616866132,0.11125687433748876,0.10950734420698467
375,269.52703099999997,-1.79635190963745,-1.10239815711975,-1.27797102928162,0.9847553408875754,0.1121724503380908,0.1087872349486061
376,269.535364,-1.73658108711243,-1.21782875061035,-1.29724562168121,0.982550309628856,0.11139255397173775,0.10794886520930715
377,269.543697,-1.789231300354,-1.18134140968323,-1.28821682929993,0.9830944878714428,0.11265275429706224,0.1087116465276602
378,269.55203,-1.8788298368454,-1.05887973308563,-1.35955238342285,0.9833153899835082,0.11323632026205305,0.10977539480948979
379,269.560363,-1.82685852050781,-1.02604222297668,-1.34692466259003,0.980786790653151,0.11289378818200509,0.10643460312668161
380,269.568696,-1.82145392894745,-0.9100866317749,-1.27177238464355,0.982305176404058,0.11212283251236939,0.10970723872282039
381,269.577029,-1.9197359085083,-0.90135210752487,-1.39776885509491,0.9826443146686162,0.11170861672381938,0.11247512029141836
382,269.585362,-1.7567263841629,-0.85040533542633,-1.3400342464447,0.9835113797868998,0.1136277646434551,0.11176229739675714
383,269.59369499999997,-1.62189340591431,-0.73483401536942,-1.21869969367981,0.9847891087434735,0.11380184669883876,0.10679779004077551
384,269.60202799999996,-1.79396975040436,-0.77891606092453,-1.22533357143402,0.9865022192195969,0.11181062581587856,0.10809906891414081
385,269.610361,-1.73795139789581,-0.91759151220322,-1.25535368919373,0.986075498619858,0.11292078057113979,0.10489583015441939
386,269.618694,-1.62040770053864,-0.96830779314041,-1.29487633705139,0.9863614062873682,0.1146200116799806,0.10930158654037754
387,269.627027,-1.63718509674072,-1.03318858146667,-1.29405689239502,0.9870784136713765,0.11444449424743672,0.10567319636442243
388,269.63536,-1.70903289318085,-1.13208520412445,-1.26385760307312,0.9862860854791132,0.11300585707839692,0.10430844462647754
389,269.643693,-1.74829947948456,-1.1645382642746,-1.29600346088409,0.9873893309612662,0.11132691587720611,0.10686059387362755
390,269.652026,-1.8424574136734,-1.24107372760773,-1.29810380935669,0.9889463502533581,0.11119146736300714,0.10654865478982754
391,269.66035899999997,-1.69876170158386,-1.5168365240097,-1.28534805774689,0.9857722691127233,0.11112661994233468,0.10692718077679081
392,269.66869199999996,-1.72076451778412,-1.43730449676514,-1.30486607551575,0.9848841842339959,0.11123894428720306,0.10444256724143469
393,269.677025,-1.62952649593353,-1.35713183879852,-1.29305779933929,0.9848696844918386,0.10995301665092042,0.10686592179901734
394,269.685358,-1.58836448192596,-1.39668035507202,-1.21916079521179,0.9807434860540897,0.10954163512405102,0.10651433954433469
395,269.693691,-1.62611973285675,-1.3017795085907,-1.2282794713974,0.9823040086395888,0.11121652564223979,0.10834836229986121
396,269.702024,-1.68367481231689,-1.20185828208923,-1.23824334144592,0.9830998401252592,0.1109163615168357,0.1071255426017602
397,269.710357,-1.75992858409882,-1.10957026481628,-1.3416223526001,0.9856929584425326,0.11193263287446938,0.10748764690087755
398,269.71869,-1.76351463794708,-1.01712846755981,-1.26734113693237,0.9849202876188317,0.1106703159760459,0.10799750989797142
399,269.727023,-1.82327270507812,-1.28771722316742,-1.28219735622406,0.9871021582155817,0.10932890736326835,0.10418686331534896
400,269.73535599999997,-1.85260093212128,-1.44765257835388,-1.29187965393066,0.9866994741011642,0.1091416757933949,0.10926965548067653
401,269.74368899999996,-1.91071939468384,-1.31007826328278,-1.31029617786407,0.9858730861118857,0.11111929708597651,0.1069485654636306
402,269.752022,-1.80508625507355,-1.27368068695068,-1.39241552352905,0.9843747469843651,0.11099601278499693,0.10618157532750304
403,269.760355,-1.78090667724609,-1.37139904499054,-1.37066900730133,0.9836835277323815,0.11253259619887959,0.10671096188681427
404,269.768688,-1.84481406211853,-1.24424982070923,-1.2856297492981,0.9841619219098775,0.11191061564854182,0.10562745892271734
405,269.777021,-1.80306303501129,-1.41250991821289,-1.33181214332581,0.98405088697161,0.11201171242460918,0.10665326702351427
406,269.785354,-1.90928530693054,-1.14166498184204,-1.4358571767807,0.9832577802697009,0.11417711267665917,0.1073017047376051
407,269.793687,-1.85562348365784,-1.0151561498642,-1.41503286361694,0.9847212810905611,0.11282694583036428,0.10724119994105101
408,269.80201999999997,-1.90779948234558,-0.94735532999039,-1.42620062828064,0.982318703009158,0.1109355931379357,0.10955339791823367
409,269.81035299999996,-1.86517739295959,-0.95916348695755,-1.4578343629837,0.9813299957586795,0.1110918059641,0.10766939241058979
410,269.818686,-1.84263694286346,-0.8004065155983,-1.37020790576935,0.9840498165208469,0.11363384675006429,0.10867498358901631
411,269.827019,-1.76625537872314,-0.86805367469788,-1.45263457298279,0.9867871537500499,0.11511065522018775,0.10774320485640511
412,269.835352,-1.50593781471252,-0.99146300554276,-1.42074477672577,0.9871038125485786,0.11448428338887755,0.10978802126281122
413,269.843685,-1.4606260061264,-1.04169249534607,-1.43188691139221,0.9854731267812294,0.11421209695387857,0.10667927411137754
414,269.852018,-1.23365843296051,-0.91336524486542,-1.44087767601013,0.9868130391957806,0.11669672265344692,0.10553874531570713
415,269.860351,-0.99803298711777,-1.18461990356445,-1.54366743564606,0.9868355186618102,0.11343993702713366,0.10369575753503876
416,269.868684,-1.02441573143005,-1.28828060626984,-1.51864218711853,0.9848777615294162,0.11376511077491631,0.1069722370225551
417,269.87701699999997,-1.03166460990906,-1.13987195491791,-1.53306329250336,0.9822012453663101,0.11322222193893164,0.1088921391234102
418,269.88534999999996,-0.97423738241196,-1.16978931427002,-1.40237927436829,0.9812124408021264,0.11299792601137754,0.11005014789347754
419,269.893683,-1.16485846042633,-0.95483464002609,-1.46700406074524,0.979431697300502,0.11150762742879489,0.11081595810092244
420,269.902016,-1.16416692733765,-0.69254487752914,-1.37120676040649,0.9822336508303275,0.11066492722958979,0.1131545280923653
421,269.910349,-1.13017678260803,-0.76285594701767,-1.31526517868042,0.9848818487050581,0.1111415089393153,0.1126710736021704
422,269.918682,-0.90566802024841,-0.88249999284744,-1.15717434883118,0.986487816791145,0.11424610809403979,0.10977687884350203
423,269.927015,-0.66130828857422,-0.78706139326096,-1.17162072658539,0.9891573263674367,0.11238065301155509,0.10723204028849694
424,269.935348,-0.51994329690933,-0.91526061296463,-0.97959077358246,0.9910204945778356,0.11359372917486735,0.10756711570584082
425,269.94368099999997,-0.3249933719635,-1.21090006828308,-1.0350456237793,0.9895213769406682,0.11332584887134796,0.10769699301038468
426,269.95201399999996,-0.51725399494171,-1.44690978527069,-1.10425531864166,0.9895742182828938,0.10966995540930306,0.10487208561021429
427,269.960347,-0.76655715703964,-1.58443236351013,-1.18893587589264,0.987539583322953,0.11001748698098365,0.10897592622406632
428,269.96868,-0.91816794872284,-1.6628634929657,-1.19913053512573,0.9878874798210295,0.10766798136185612,0.10820265935391836
429,269.977013,-1.18755280971527,-1.79277884960175,-1.29013776779175,0.9828631731928612,0.1048463582992551,0.10944011260052143
430,269.985346,-1.46270108222961,-1.71127414703369,-1.26534330844879,0.9792389188493998,0.10458285711249489,0.11123051448744184
431,269.993679,-1.61098158359528,-1.70261657238007,-1.22940647602081,0.9783879104925662,0.10526935664974897,0.11100404116572142
432,270.002012,-1.60970103740692,-1.53776347637177,-1.22938096523285,0.9805180101978529,0.10565096018265713,0.1102144620856459
433,270.010345,-1.48818719387054,-1.42759668827057,-1.11275923252106,0.9828674549959141,0.10693899222782652,0.10716141486654489
434,270.01867799999997,-1.44766521453857,-1.18779611587524,-1.11593520641327,0.9833215207469704,0.10560883551227755,0.1092786083416061
435,270.027011,-1.24738764762878,-1.13336598873138,-0.9235725402832,0.9845973034294285,0.10481290671290203,0.10459408468129694
436,270.035344,-1.11772835254669,-1.0824191570282,-0.82723730802536,0.984506412428253,0.10733895155848265,0.10715692627186632
437,270.043677,-1.06929183006287,-1.01966416835785,-0.97428858280182,0.9854252484379978,0.10682237391569183,0.10841055792205202
438,270.05201,-1.20940160751343,-1.03477668762207,-0.97346895933151,0.9842762655141398,0.10599445323554796,0.10722886542884692
439,270.060343,-1.20143556594849,-1.10416555404663,-0.97298222780228,0.9856835190130734,0.10361294357144081,0.11056104484869488
440,270.068676,-1.54745829105377,-1.03767108917236,-0.92892569303513,0.9868313341724633,0.10588047455768164,0.11444725552383775
441,270.077009,-1.71615362167358,-1.11233651638031,-1.02633678913116,0.9861954864190551,0.10716519793685612,0.11373817920684795
442,270.08534199999997,-1.87393760681152,-1.20400989055634,-1.0553320646286,0.9862270160597193,0.10802332235842345,0.11703295367104694
443,270.09367499999996,-1.98397612571716,-1.08013951778412,-1.15476655960083,0.9844815001195796,0.10624784596112345,0.1138180615950602
444,270.102008,-1.93986833095551,-1.05936634540558,-1.21183514595032,0.9825134277343754,0.10684142307359387,0.1166735741556908
445,270.110341,-1.99506735801697,-0.97214990854263,-1.20281898975372,0.9810661783023754,0.10622558545093162,0.11392826936682858
446,270.118674,-1.96253705024719,-0.75583761930466,-1.30998885631561,0.981292432668258,0.10540091261571735,0.11546510822918979
447,270.127007,-2.06327795982361,-0.88296109437943,-1.248002409935,0.984258749047104,0.10598197275278469,0.11298746478800918
448,270.13534,-2.08192491531372,-0.78252762556076,-1.17600071430206,0.9839068626870917,0.10947450083129284,0.11352879660470101
449,270.143673,-2.08318018913269,-0.96554148197174,-1.1554069519043,0.9877766395101745,0.10929310808376427,0.11181478597679897
450,270.152006,-2.08927631378174,-1.01431095600128,-1.19065201282501,0.9897399435237958,0.10824941858953367,0.11013054117864489
451,270.16033899999996,-2.11489033699036,-1.10657334327698,-1.17008376121521,0.9882525035313193,0.10813872424923672,0.1076281922204153
452,270.168672,-2.16035604476929,-1.26351177692413,-1.29513263702393,0.9884945227175346,0.10624958544361326,0.10784374207866428
453,270.177005,-2.26522064208984,-1.49923968315125,-1.3419554233551,0.9878745370981642,0.1064717769622806,0.11371100435451632
454,270.185338,-2.34406113624573,-1.5858668088913,-1.3155472278595,0.9873788210810448,0.10776310550923265,0.10863810169453571
455,270.193671,-2.42456674575806,-1.58256280422211,-1.22197842597961,0.9887039418123204,0.1050735128169153,0.10874216653862755
456,270.202004,-2.36596131324768,-1.51993596553802,-1.02244341373444,0.9850485470830174,0.10572423740309082,0.10941691544591123
457,270.210337,-2.35269331932068,-1.56926894187927,-1.11575615406036,0.9837287786055582,0.10710296582202551,0.11000852195584082
458,270.21867,-2.52154183387756,-1.51980769634247,-1.11127352714539,0.9842057130774673,0.10838029335956224,0.11271539999514182
459,270.22700299999997,-2.71521139144897,-1.55566775798798,-1.13706707954407,0.9817866889797907,0.1071025887314153,0.11171226598778572
460,270.23533599999996,-2.74187588691711,-1.59951937198639,-1.10725224018097,0.9824265265951347,0.10900509600736631,0.11111462602809999
461,270.243669,-2.82681250572205,-1.63642930984497,-1.19505774974823,0.9837888211620102,0.1074783047851255,0.11232026985713367
462,270.252002,-3.03057408332825,-1.53735375404358,-1.1420875787735,0.9852542682569857,0.1067272132756755,0.11176763748636019
463,270.260335,-3.11755967140198,-1.75776398181915,-1.11573028564453,0.9854383857882754,0.10658439324826632,0.11045218730459387
464,270.268668,-3.19803953170776,-1.7970050573349,-1.12208271026611,0.985199675268056,0.10552996275376327,0.1107099713111408
465,270.277001,-3.26361179351807,-1.84129178524017,-1.20189642906189,0.9823267800467356,0.10710656642913774,0.11136807957474082
466,270.285334,-3.19394087791443,-1.68384110927582,-1.21939122676849,0.9821945307206131,0.111110210418701,0.10881639256769285
467,270.29366699999997,-3.04430294036865,-1.57866930961609,-1.39256906509399,0.9809844347895408,0.11041885736037244,0.10866221116513572
468,270.30199999999996,-2.92599081993103,-1.55472004413605,-1.43070876598358,0.980846833209602,0.11137511048998162,0.10807026405723774
469,270.310333,-2.80957436561584,-1.33126151561737,-1.3769189119339,0.9799282891409733,0.11206270480642551,0.11139396502047141
470,270.318666,-2.84866189956665,-1.20593106746674,-1.54528117179871,0.9793985133268396,0.1124759231294908,0.11095143094354795
471,270.326999,-2.88539242744446,-0.9777467250824,-1.46006274223328,0.9799442485887173,0.11522261463865918,0.11449188602213979
472,270.335332,-2.87261056900024,-0.99814826250076,-1.34372270107269,0.9829717752884847,0.1168999501637051,0.11313063757760204
473,270.343665,-2.77801728248596,-0.94279587268829,-1.47391986846924,0.9822707273522203,0.11772568128546938,0.11394433829249183
474,270.351998,-2.90670347213745,-1.00173425674438,-1.45432496070862,0.9843220029558459,0.11751291703204694,0.11553927343718877
475,270.360331,-2.89735436439514,-0.91444110870361,-1.41746604442596,0.9846604600244642,0.11763567827185817,0.1149380936914561
476,270.36866399999997,-2.96100568771362,-0.83764952421188,-1.44215822219849,0.9836335084876233,0.11651838312343672,0.1145313345656102
477,270.37699699999996,-2.98257303237915,-1.004603266716,-1.25737738609314,0.9820048663080958,0.11471252052151429,0.11507831057723673
478,270.38533,-2.8743269443512,-0.90919005870819,-1.18086743354797,0.9845894210192622,0.11760395400378164,0.1134299745365061
479,270.393663,-2.72988820075989,-1.07732200622559,-1.22415554523468,0.9830426196662745,0.11579794543130102,0.11094315927855815
480,270.401996,-2.77020502090454,-0.88398563861847,-1.25958001613617,0.9825295818095305,0.1180665103756653,0.11140665229485917
481,270.410329,-2.55726099014282,-1.01739740371704,-1.31092369556427,0.9803546204858897,0.11832177639007549,0.1136586739092459
482,270.418662,-2.34800577163696,-0.77694380283356,-1.33050584793091,0.9841729183586275,0.12115219417883467,0.11354857561539591
483,270.426995,-2.03251528739929,-0.84897094964981,-1.40937209129333,0.9851195860882194,0.12093773909977551,0.11344955891978979
484,270.43532799999997,-1.73234188556671,-0.9250453710556,-1.46556973457336,0.9838565515012153,0.1199030632875408,0.1121913778538602
485,270.44366099999996,-1.54369294643402,-0.97686284780502,-1.55422043800354,0.9831572552116551,0.12214721465597346,0.11360129531548979
486,270.451994,-1.18260931968689,-1.02322459220886,-1.58933770656586,0.9838989802769255,0.1231900769837051,0.1154448791426051
487,270.460327,-0.97154778242111,-1.25931096076965,-1.63782525062561,0.9825018474033899,0.12448246381720712,0.1132917404174806
488,270.46866,-0.58866637945175,-1.24381446838379,-1.64963364601135,0.9814791776696029,0.12369542705769489,0.11447225298200304
489,270.476993,-0.3348805308342,-1.23095607757568,-1.64279460906982,0.9827665406830458,0.12386342700646835,0.1134007439321398
490,270.485326,-0.2556044459343,-1.31077003479004,-1.6429226398468,0.9810074981378051,0.12388917864585407,0.1105005522163551
491,270.493659,-0.37773314118385,-1.27683126926422,-1.61208319664001,0.9814149506238039,0.12237738589851223,0.1147075210298806
492,270.501992,-0.4778079688549,-1.32321858406067,-1.66041707992554,0.9848360139496468,0.11902253238522244,0.12016539670983163
493,270.51032499999997,-0.82208877801895,-1.51606810092926,-1.64176988601685,0.9844610642413703,0.11949629199748163,0.12386977672576938
494,270.51865799999996,-1.17108273506165,-1.90627527236938,-1.65818858146667,0.9851843970162529,0.11933897222791427,0.12649941201112755
495,270.526991,-1.59714996814728,-1.94897449016571,-1.61372256278992,0.9830482638612081,0.11665606985286835,0.12811321385052754
496,270.535324,-2.04790949821472,-1.64997935295105,-1.76174700260162,0.979382748506507,0.11526812096031326,0.1328032114067857
497,270.543657,-1.87626838684082,-1.54534530639648,-1.79489171504974,0.980447847016004,0.1165242097815694,0.12774136601662142
498,270.55199,-1.44177424907684,-1.52682614326477,-1.87145304679871,0.9836032439251337,0.11953193314221429,0.1222773474089949
499,270.560323,-1.11972641944885,-1.6259788274765,-1.8726567029953,0.9839287582708865,0.12101978671794082,0.1183219223606347
500,270.568656,-0.8949870467186,-1.63996422290802,-1.90303528308868,0.9839996026486764,0.12124701422087959,0.12033479554312551
501,270.57698899999997,-0.8962676525116,-1.31333136558533,-2.00008749961853,0.9855357968077367,0.12143900199812244,0.11979622500283367
502,270.58532199999996,-1.15971004962921,-1.14699256420135,-1.98551297187805,0.9856060573032926,0.12335138661520817,0.12419231083928367
503,270.593655,-1.73126614093781,-1.39565563201904,-2.02864742279053,0.9877828675873428,0.11955306238057652,0.12201449092553569
504,270.601988,-2.40518975257874,-1.73746490478516,-1.91419041156769,0.9898867899057816,0.1185053830244102,0.12047811430327754
505,270.610321,-3.10457301139832,-2.07917141914368,-1.8396143913269,0.9892876294194438,0.11590349430940611,0.12383088773610612
506,270.618654,-3.39278507232666,-2.11825895309448,-1.87444984912872,0.986097394203653,0.11945993316416836,0.1292696047802357
507,270.626987,-3.46199464797974,-2.139493227005,-1.56467127799988,0.9850586677084163,0.12183233183257448,0.12780477806013468
508,270.63532,-3.01063299179077,-2.01171636581421,-1.55630815029144,0.9848337757344151,0.12881585529872347,0.12528331912293775
509,270.643653,-2.55092144012451,-2.04833197593689,-1.70452487468719,0.9829560104681521,0.13147551186230713,0.12275773651745815
510,270.65198599999997,-2.01842737197876,-2.0107045173645,-1.78177762031555,0.9831464533903161,0.13728526173805713,0.12276763818701938
511,270.660319,-1.56195604801178,-2.30273246765137,-1.77783298492432,0.9831478157821968,0.14248199608861223,0.12093505080865305
512,270.668652,-1.2210818529129,-2.01498222351074,-1.8411511182785,0.9803419697041417,0.14217578634923775,0.12102049224230714
513,270.676985,-0.83740615844727,-2.09282398223877,-1.91266620159149,0.9806408200945173,0.14375709757512958,0.12454504869422142
514,270.685318,-0.27020457386971,-1.96541881561279,-1.8657408952713,0.9801579494865571,0.1459392236203561,0.1239769191158061
515,270.693651,-0.12497186660767,-1.93483507633209,-2.02634215354919,0.9799198228485733,0.15021949398274284,0.1273308481488908
516,270.701984,-0.0685180798173,-1.92871332168579,-1.8469911813736,0.9819287669901948,0.14972723260217755,0.1265908747303245
517,270.710317,0.23568938672543,-2.00517225265503,-1.86440896987915,0.9829947413230428,0.14891529569820508,0.125091659779451
518,270.71864999999997,0.45763671398163,-2.2812933921814,-1.73072838783264,0.9826836294057417,0.15148091072938877,0.12335686051115713
519,270.72698299999996,0.64874452352524,-2.60049796104431,-1.63951587677002,0.9833930463207009,0.14637173438558773,0.1213543755667551
520,270.735316,1.0170259475708,-3.12874031066895,-1.69100058078766,0.9824161140286194,0.14671854826868774,0.11806462492261631
521,270.743649,1.64618849754333,-3.30939745903015,-1.73216259479523,0.980915342058454,0.14689928414870304,0.11911793630950307
522,270.751982,2.36897110939026,-3.1849639415741,-1.693638920784,0.9788139498963653,0.14659919300857857,0.12068483294272958
523,270.760315,3.09516024589539,-3.16736698150635,-1.5573456287384,0.9772448637047592,0.1507351836379694,0.12043128208238264
524,270.768648,3.59718656539917,-2.98339247703552,-1.61629676818848,0.974745847740952,0.1525750695442663,0.12610141111879897
525,270.776981,4.05607795715332,-2.65487694740295,-1.3242814540863,0.9765714528609295,0.15314845406279284,0.12097853787091327
526,270.78531399999997,4.52389669418335,-2.62316656112671,-1.34761619567871,0.9800880782458244,0.15497022745560612,0.12526965871149184
527,270.79364699999996,5.11609745025635,-2.76798963546753,-1.15281987190247,0.9831135613577704,0.15350093646925306,0.12903437322499794
528,270.80198,5.33907032012939,-2.99303674697876,-1.12146806716919,0.9840288940741091,0.152148738199351,0.12626115156679693
529,270.810313,5.81444501876831,-3.20755553245544,-0.95389974117279,0.9863373698020469,0.15152450726956734,0.12713135505209183
530,270.818646,6.22037935256958,-3.49271893501282,-0.95927876234055,0.9841676634185162,0.15206401445427756,0.12449274257737752
531,270.826979,6.82551622390747,-3.60168218612671,-0.8048250079155,0.9848905096248703,0.1512825367402061,0.12568998093507755
532,270.835312,6.9017186164856,-3.86568808555603,-0.84252917766571,0.9825515747070316,0.15129820424683263,0.12617809431893467
533,270.843645,6.90930032730103,-4.05018758773804,-0.85123807191849,0.9825532290400296,0.15077730830834796,0.13178720766184285
534,270.851978,6.98148155212402,-3.85662031173706,-0.63600152730942,0.9796652501943163,0.14756231891865612,0.13397857850911632
535,270.86031099999997,7.0882396697998,-4.02887535095215,-0.45519053936005,0.9832626459549887,0.1505212759485051,0.13279046331133162
536,270.86864399999996,7.23472785949707,-4.32805013656616,-0.38485386967659,0.9827562254302357,0.1491014568173153,0.13063760436311017
537,270.876977,7.15391540527344,-4.42569208145142,-0.14441308379173,0.9827270313185091,0.15209688215839592,0.1342243929298561
538,270.88531,7.55182027816772,-4.35698175430298,0.10002359747887,0.9813886759232499,0.15372323746583877,0.13205390803667957
539,270.893643,8.0963659286499,-4.86687183380127,0.33970883488655,0.9821504476119061,0.1522245334119214,0.12821658533446634
540,270.901976,8.76371955871582,-5.12165689468384,0.55361330509186,0.9781618507540959,0.1550331529305908,0.12452726461449488
541,270.910309,9.46521663665771,-5.19563102722168,0.7025089263916,0.975806664447395,0.15306459397685815,0.12370373521532346
542,270.918642,9.94963359832764,-5.3946270942688,0.75360924005508,0.9752431207773632,0.1520947047642296,0.12560464897934284
543,270.92697499999997,9.71188068389893,-4.96271991729736,0.76049953699112,0.973688339700504,0.14724175540768367,0.13223840265857958
544,270.93530799999996,9.40591907501221,-4.96015882492065,0.9266591668129,0.9759035888983274,0.14756167421535613,0.1353288548333306
545,270.943641,9.28320217132568,-4.83444404602051,1.09412503242493,0.9749607164032601,0.14690854111496324,0.13952077651510408
546,270.951974,9.3527193069458,-4.88108777999878,1.3899952173233,0.9762192745598,0.14604005278373264,0.13652374549787857
547,270.960307,9.47920227050781,-5.01925086975098,1.55090379714966,0.974158364899304,0.1469066799903398,0.1349337733521755
548,270.96864,10.02373504638672,-5.15485239028931,1.66014838218689,0.9747050732982397,0.14662884936040713,0.12977602530498877
549,270.976973,10.8961296081543,-4.87360763549805,2.04999709129333,0.9715601862693315,0.14773871217455203,0.13104193064631225
550,270.985306,11.34543037414551,-4.58777952194214,2.33802938461304,0.9687116194744498,0.14930079177934283,0.13148726249227755
551,270.993639,11.42479515075684,-4.28403234481812,2.31683349609375,0.9692517105413938,0.1483076445910398,0.13455130616012856
552,271.00197199999997,11.30210208892822,-4.30887842178345,2.43527340888977,0.9683628471530213,0.1506984233856204,0.13912215524790203
553,271.01030499999996,11.20081043243408,-4.1599440574646,2.42714095115662,0.9662667099310428,0.15091034830832958,0.14250782071327653
554,271.018638,11.17089462280273,-3.79993653297424,2.46446108818054,0.9661674499511714,0.14757640507756428,0.14561548524973367
555,271.026971,11.10972690582275,-3.61136388778687,2.44320130348206,0.9687794471273611,0.14996531058330917,0.14648216111319387
556,271.035304,11.33203315734863,-3.30153441429138,2.44455885887146,0.9650062055003887,0.14558354202581938,0.14798710540849283
557,271.043637,11.53553771972656,-3.09679937362671,2.6655580997467,0.9627741210314693,0.14524113158790405,0.14934432749845508
558,271.05197,11.78448295593262,-2.6603844165802,2.93394446372986,0.963969230651855,0.14106128896985715,0.1503006049564908
559,271.060303,11.64329624176025,-2.29174399375916,3.08993482589722,0.9637301308768131,0.14166403789909487,0.15139568825157346
560,271.06863599999997,11.65404033660889,-1.88510513305664,3.2507791519165,0.9697121989970305,0.14040492018874795,0.1521462445356408
561,271.07696899999996,11.68239688873291,-1.86525428295135,3.47387933731079,0.9681565420968193,0.1410156974987112,0.14860563132227653
562,271.085302,11.87239170074463,-1.7982349395752,3.52453207969666,0.9703932976236151,0.14118699394926734,0.1463934475061847
563,271.093635,12.09251976013184,-1.72216057777405,3.74816966056824,0.9695912380607765,0.14247359061727755,0.14993260101396222
564,271.101968,12.38821125030518,-2.03022289276123,3.69699287414551,0.973651847060846,0.14600739187123776,0.15330240434529796
565,271.110301,12.58269882202148,-2.33206129074097,3.97447180747986,0.9675492072591979,0.14464917231579183,0.15603477857550815
566,271.118634,12.64212512969971,-1.94208431243896,4.28714466094971,0.9602230422350826,0.13674272566425508,0.16389771383635815
567,271.126967,12.56167030334473,-0.93426644802094,4.70652627944946,0.9583827427455357,0.1348485143817204,0.1686502962696306
568,271.1353,12.30506610870361,0.20291596651077,5.19478511810303,0.959043308180206,0.1381123309232755,0.17367421364297653
569,271.14363299999997,12.98364162445068,0.24354021251202,5.23689556121826,0.9642542624960141,0.1393362089079255,0.16203936265439386
570,271.151966,13.5081672668457,0.64222580194473,5.44293546676636,0.9661111053155398,0.13956118603141937,0.1566434758050102
571,271.160299,14.21063899993896,0.76394468545914,5.39283466339111,0.9655116528880837,0.14276103097565304,0.15714878938636018
572,271.168632,14.66755962371826,0.86464720964432,5.41828298568726,0.9663915634155275,0.13979132078131837,0.16355206771772754
573,271.176965,14.4713659286499,1.81092667579651,5.53512144088745,0.961924280439104,0.13833680931402753,0.1700848340988163
574,271.185298,14.40361785888672,1.81118285655975,5.60768699645996,0.9610576045756438,0.13605145775541938,0.1715409998991051
575,271.193631,14.48719692230225,2.53358125686646,5.6563286781311,0.9632425892109775,0.13420559922043163,0.17557049284175918
576,271.201964,14.40108203887939,2.85096740722656,5.90445375442505,0.9638476858333663,0.13379086037071428,0.17714656129175305
577,271.21029699999997,14.6115026473999,2.28028202056885,6.52926158905029,0.949668203081403,0.12769793977542754,0.18201588367929286
578,271.21862999999996,14.71370315551758,4.92525959014893,7.57544994354248,0.9221588835424306,0.12200017364657652,0.18218185220445918
579,271.226963,15.10306644439697,9.48523616790771,7.44397211074829,0.9760259122264632,0.1324065972347653,0.1809198759040051
580,271.235296,15.93750190734863,6.8781156539917,6.11413240432739,0.995775826123296,0.14219760894775407,0.1699602238985959
581,271.243629,17.74965476989746,5.31434011459351,5.41191720962524,0.9917538506644112,0.1411949980015653,0.16964266494828875
582,271.251962,18.939208984375,4.81809043884277,4.85680627822876,0.9849287539112326,0.1433218985187765,0.17297062338615
583,271.260295,20.25529670715332,4.93834972381592,5.04299640655518,0.979823871534698,0.14589299961012245,0.17590256369843774
584,271.268628,20.90338706970215,4.8032603263855,5.23228549957275,0.974335086588957,0.14781121088533977,0.17626598173258265
585,271.276961,22.02519607543945,4.18959474563599,5.73824453353882,0.9622634187036632,0.13696663233698672,0.1805098689332296
586,271.28529399999996,22.69487571716309,4.22745275497437,7.00791692733765,0.948310579572405,0.1308547234048653,0.17791268776874183
587,271.293627,22.7750244140625,5.29682207107544,8.11998558044434,0.9507715458772622,0.11922222010943367,0.17204976811700917
588,271.30196,23.36814880371094,6.35963344573975,9.76990222930908,0.9545624012849765,0.10599203255711735,0.1544855565440898
589,271.310293,23.21702766418457,7.33461570739746,11.31193256378174,0.9620314228291417,0.09120485612324285,0.1417588944337806
590,271.318626,23.16102981567383,8.26215839385986,12.37464046478271,0.9670946549396121,0.07510867654060815,0.12926679484698264
591,271.326959,22.85617446899414,9.73149585723877,12.85642147064209,0.9804729539520888,0.06509570442900407,0.12189945396111937
592,271.335292,22.18072509765625,10.54249382019043,12.8875675201416,0.9965395440860674,0.06801271925167142,0.11118267263684999
593,271.343625,21.7514820098877,11.27534198760986,12.41964626312256,1.0060813475628285,0.0701761306548602,0.10959317489546122
594,271.35195799999997,21.49951553344727,11.54006576538086,11.55931568145752,1.0033704796615908,0.07097674875843266,0.10540458620811019
595,271.36029099999996,20.81704711914062,12.63002777099609,10.95117950439453,0.9799328628851438,0.06888182795777653,0.10020111288343161
596,271.368624,20.43099212646484,15.54014205932617,11.04147243499756,0.9488773345947265,0.05001366138458265,0.0959097365943755
597,271.376957,18.76555252075195,21.7819766998291,10.47422027587891,0.9757909969407682,0.051577212859173466,0.09870405099829897
598,271.38529,17.3114185333252,23.0830135345459,8.39092254638672,1.028656375651457,0.05786614150417142,0.08610541115001734
599,271.393623,15.57019805908203,20.41430282592773,5.51563215255737,1.046017530013104,0.050589861918468364,0.06414478530689183
600,271.401956,14.20062923431396,17.37588500976562,2.92119002342224,1.0479709080287387,0.045101703429709185,0.04451983133140918
601,271.410289,13.29524040222168,14.17633152008057,0.75232869386673,1.059543161976094,0.04297015618304796,0.02621814608573877
602,271.41862199999997,13.15006828308105,9.54170227050781,-1.3677362203598,1.059318464629504,0.045964964190308155,0.02120212936887959
603,271.42695499999996,13.50842666625977,5.5652322769165,-2.66024398803711,1.0494654519217357,0.053511073394697954,0.025167811890037754
604,271.435288,13.86353874206543,3.25357151031494,-3.22829055786133,1.0334001268659314,0.06554078690859694,0.02848347230833367
605,271.443621,14.14957332611084,1.66361904144287,-3.47270131111145,1.018344431507344,0.08000241250407959,0.03774623481594796
606,271.451954,13.76619434356689,0.62515395879745,-3.46336555480957,1.0142982249357266,0.09498433190949081,0.038276968561873466
607,271.460287,12.97136878967285,-0.71311312913895,-3.58015322685242,1.0264374285328142,0.11091895249425103,0.04452429863871326
608,271.46862,12.13639831542969,-3.02333855628967,-3.82979035377502,1.0385089017906968,0.1307392971856255,0.04589248372583979
609,271.476953,11.67521476745605,-5.9658260345459,-4.43315935134888,1.0444516551737877,0.13853304240168365,0.04817185353259694
610,271.485286,11.54312133789062,-9.4224681854248,-4.84080934524536,1.0482072830200193,0.14012088581007345,0.04770156680321224
611,271.49361899999997,12.25327682495117,-12.26567459106445,-5.25496673583984,1.043570966136699,0.1400616095990551,0.04308327728388265
612,271.50195199999996,12.92893218994141,-15.27455711364746,-5.81840467453003,1.0363884361422795,0.1373700584684102,0.05069254916541428
613,271.510285,13.61400985717773,-17.58275985717773,-6.23537921905518,1.016636089402802,0.12849543775830918,0.05781112884988571
614,271.518618,13.79658889770508,-19.25380706787109,-6.3677020072937,0.9991357764419243,0.1200334393248265,0.06605363622003672
615,271.526951,13.89960956573486,-20.02338600158691,-6.14101600646973,0.983936737994758,0.11351925986153774,0.06577950959302958
616,271.535284,13.71818542480469,-19.86716842651367,-5.72721815109253,0.9741949548526684,0.10848683970315101,0.07523506879806531
617,271.543617,13.6572208404541,-19.30129432678223,-4.72180652618408,0.9660385092910458,0.10412387701929796,0.0795190918202306
618,271.55195,13.22154998779297,-18.50177192687988,-4.00278949737549,0.9594808306012836,0.10068161146981326,0.08814911453091326
619,271.56028299999997,12.65939331054688,-16.9268798828125,-3.23907518386841,0.9556129027386102,0.10594309592733571,0.10579104326209286
620,271.56861599999996,11.7011890411377,-14.93826389312744,-2.83516383171082,0.9569589459166234,0.1119937337174704,0.13099967216958774
621,271.576949,10.38866329193115,-12.66676902770996,-2.89691972732544,0.9693557388928469,0.12380891916703163,0.15663618944129182
622,271.585282,8.71032619476318,-10.96909236907959,-3.92754578590393,0.9879558913561763,0.14505969018352244,0.17560698548141834
623,271.593615,6.94120216369629,-10.29917621612549,-5.79610443115234,1.0056737977631234,0.16109135686134796,0.19073734478074691
624,271.601948,4.68383312225342,-10.69587898254395,-8.04801940917969,1.0070146833147327,0.16390723841530916,0.19083638580477957
625,271.610281,3.52573609352112,-11.12432861328125,-10.08371162414551,0.987075494260204,0.1539943047932214,0.18056379289043162
626,271.618614,3.92489576339722,-9.33582782745361,-11.00261116027832,0.9482227052961082,0.13655981239007448,0.15916834072190916
627,271.626947,6.20705986022949,-4.57894229888916,-10.15724945068359,0.9197394701899315,0.10792883075013468,0.14059126377105713
628,271.63527999999997,9.25515365600586,0.70692735910416,-8.46827220916748,0.9150484630039754,0.08792643036161121,0.13203496835669695
629,271.64361299999996,11.80272102355957,4.83120393753052,-6.51188182830811,0.9288203959562337,0.07685917980816939,0.12547808034079388
630,271.651946,12.56097888946533,5.48910570144653,-4.95253849029541,0.9451457432338173,0.07135757986380102,0.1210562671933857
631,271.660279,11.42958545684814,4.83288192749023,-3.75047516822815,0.9437590229267979,0.07273267726508979,0.11793467463279286
632,271.668612,9.3255558013916,4.27559280395508,-2.8016984462738,0.9440739300786234,0.07350586506785203,0.1165887530969112
633,271.676945,6.62108850479126,3.63609480857849,-1.92601156234741,0.9422128054560448,0.07459812018336122,0.11259015725583468
634,271.685278,4.45545482635498,3.44170784950256,-1.13565838336945,0.9368813767725113,0.07377623295297447,0.10005974039739489
635,271.693611,2.45798063278198,3.95888519287109,-0.53997373580933,0.9350485704383071,0.07741101542297653,0.09479898579266632
636,271.70194399999997,1.39122426509857,5.54074287414551,-0.07156617939472,0.9427906542408224,0.08629366451380203,0.10013340079054489
637,271.71027699999996,1.38279736042023,6.7653341293335,-0.11293316632509,0.9609781965917468,0.09680218234354183,0.1119363794521408
638,271.71861,1.78196942806244,6.82194137573242,-0.29960969090462,0.9829611680945571,0.10558198909370305,0.12053614976454795
639,271.726943,2.51798152923584,6.03119134902954,-0.31829524040222,1.004412125568001,0.10779011006257957,0.12797749772363773
640,271.735276,2.97679662704468,4.24612283706665,-0.28193587064743,1.0296575390562712,0.10551773771947755,0.13065588717557958
641,271.743609,3.09485292434692,1.19477605819702,-0.57578241825104,1.0456255504063192,0.10356682903912652,0.1240923453350459
642,271.751942,3.18396472930908,-2.16597819328308,-1.08914279937744,1.0438282635747174,0.10473068879575102,0.1182685579572408
643,271.760275,2.82165145874023,-4.92711591720581,-1.83687353134155,1.026994354870855,0.10530076464828163,0.11863125830280509
644,271.768608,2.39899063110352,-5.60860776901245,-2.43655395507812,1.0002896250510704,0.1031762239884357,0.12485423866583367
645,271.77694099999997,2.18805766105652,-5.01594638824463,-2.69779396057129,0.9853249180073642,0.10046557504303572,0.1342618343781449
646,271.785274,2.28217720985413,-3.57585000991821,-2.94921016693115,0.973456830394511,0.10131375522029694,0.1361240416157
647,271.793607,2.59399199485779,-1.97773909568787,-2.99025678634644,0.9666433139723172,0.09883226788773877,0.13813859345961632
648,271.80194,2.79332208633423,-0.61700850725174,-3.10931205749512,0.9621851784842356,0.09895574073402244,0.13649826147118369
649,271.810273,3.30522274971008,0.91330111026764,-3.05352425575256,0.9616226079512611,0.10194168407089897,0.13471318750965305
650,271.818606,3.56118535995483,2.21417140960693,-3.00055408477783,0.9620105003824041,0.09634246023333774,0.13795374607553262
651,271.826939,3.29244112968445,3.53791522979736,-2.83895373344421,0.9574926142789877,0.08564613303359694,0.14442614146641325
652,271.835272,2.82249712944031,4.62326765060425,-2.81500458717346,0.9617104822275591,0.0741083524665051,0.14017029684417143
653,271.84360499999997,2.25995683670044,5.20358324050903,-2.63685750961304,0.9681269587302693,0.06690996642015408,0.13776983533586734
654,271.85193799999996,1.95394361019135,5.30253124237061,-2.58158206939697,0.9796144524399111,0.06115109944830102,0.1268405330424408
655,271.860271,1.39128839969635,4.81218528747559,-2.85699892044067,0.9869850898275571,0.056435982791744894,0.12230912033392449
656,271.868604,0.81929689645767,4.25727796554565,-2.77231812477112,0.9898359921513774,0.057800010759003054,0.11699518378899998
657,271.876937,0.60371470451355,3.82648468017578,-2.84658670425415,0.9859533699191346,0.057881383263334696,0.1164736431472153
658,271.88527,0.16799096763134,4.31971311569214,-2.64469528198242,0.9846887783128387,0.06092840311478571,0.12295311811018979
659,271.893603,-0.26515853404999,5.03814077377319,-2.42500185966492,0.9821705915489978,0.06522848289840101,0.1269608492753939
660,271.901936,-0.56279593706131,5.4508113861084,-2.44206118583679,0.9797196485558336,0.07261441070206326,0.12914116285285204
661,271.91026899999997,-0.93345963954926,6.32643508911133,-2.46344900131226,0.9901512885580255,0.07643310391173061,0.13507199530698774
662,271.91860199999996,-1.13091993331909,5.42496681213379,-2.94389533996582,0.9947712567387796,0.08221875039898571,0.14110736700953264
663,271.926935,-1.08040857315063,4.13354873657227,-3.33702254295349,0.9972996614417254,0.08490931014625408,0.1440052840174459
664,271.935268,-0.89357829093933,2.8179759979248,-3.748131275177,0.9947269790026602,0.09262548417461121,0.1492328303200857
665,271.943601,-1.14511013031006,1.27338624000549,-4.17253351211548,0.9930380023255642,0.09980060616318061,0.15593471575756426
666,271.951934,-0.81227868795395,1.939817070961,-3.9944372177124,0.980529006646604,0.09887558465101326,0.16244873708608162
667,271.960267,-0.29935359954834,2.18658494949341,-4.02796649932861,0.9787015525662172,0.10472172377060918,0.16658739167816733
668,271.9686,-0.28357520699501,1.78992295265198,-4.19018173217773,0.9736618703725388,0.11257015928930203,0.17228261548645613
669,271.976933,-0.18034984171391,1.86689364910126,-4.04735660552979,0.9723523198341836,0.10795862090830917,0.17790720170857957
670,271.98526599999997,-0.55581611394882,1.47165310382843,-4.09355163574219,0.9735183326565489,0.10371968454244182,0.18028773823562957
671,271.99359899999996,-1.07287788391113,1.95090818405151,-3.87717580795288,0.9662417003086633,0.09988851085001121,0.1791868526108408
672,272.001932,-1.66267132759094,2.55609583854675,-3.30398035049438,0.9695648660465161,0.09616100666474285,0.18170181585817957
673,272.010265,-2.18116760253906,2.9916787147522,-3.01831746101379,0.9735470401997468,0.0958537994598857,0.17698522733182345
674,272.018598,-2.28981018066406,3.1933012008667,-2.65537643432617,0.978925374089455,0.09435659768629999,0.17074145832840307
675,272.026931,-2.2171425819397,3.33917427062988,-2.17331671714783,0.9840281155644632,0.09479305573872142,0.1645878504733653
676,272.035264,-1.78446710109711,3.23059558868408,-2.01233124732971,0.9836643569323479,0.09520976519098061,0.1594812894354061
677,272.043597,-1.57670986652374,3.09619736671448,-1.78500473499298,0.9871992772939255,0.09418944315034489,0.16087412834167447
678,272.05192999999997,-1.4670295715332,3.22242426872253,-1.65332186222076,0.9891723126781234,0.09421016488756428,0.1559904521825357
679,272.06026299999996,-1.46664547920227,2.97898650169373,-1.69809556007385,0.9919813701084683,0.09404599666595408,0.15179739922893265
680,272.068596,-1.18593907356262,2.70529890060425,-1.6611088514328,0.9925429675043846,0.0996669275420051,0.14995707541095915
681,272.076929,-1.07144343852997,2.11619687080383,-1.8537278175354,0.9962490626743857,0.10162292694558878,0.14950483429188674
682,272.085262,-0.79496335983276,1.70134878158569,-1.89847588539124,0.9966043550140999,0.10317630913792858,0.14788431780678876
683,272.093595,-0.86392974853516,0.90168517827988,-2.14681887626648,0.9930821827479774,0.10472609072315409,0.14841437339782754
684,272.101928,-1.2141147851944,0.80869263410568,-2.2387866973877,0.9928460996978132,0.10520264810445407,0.14986141603820205
685,272.110261,-1.42909502983093,0.47627112269402,-2.30348825454712,0.9896550859723775,0.10422283289383877,0.15145632685447244
686,272.118594,-1.68982243537903,0.35496211051941,-2.46332120895386,0.9892731296772856,0.10204172864252245,0.15343501859781733
687,272.12692699999997,-1.97557485103607,0.51220792531967,-2.57699704170227,0.9873938073917304,0.0994273229521153,0.157146526842701
688,272.13525999999996,-2.16340398788452,0.90602672100067,-2.42262005805969,0.986687309887945,0.0959609905067755,0.1579743380449255
689,272.143593,-2.61234450340271,0.10189342498779,-2.50970816612244,0.9859586248592459,0.09494102122832347,0.15583067524189895
690,272.151926,-2.4891402721405,0.19018571078777,-2.30207943916321,0.9863879729290397,0.09794030262499488,0.1552101300687204
691,272.160259,-2.41173434257507,-0.24293822050095,-2.27487707138062,0.9873971160577265,0.10058539862535408,0.15001170489252857
692,272.168592,-2.09035229682922,-0.51152908802032,-2.29931330680847,0.9873255904839959,0.10073573005442754,0.1500471879024898
693,272.176925,-2.31434845924377,-1.0546019077301,-2.30466628074646,0.9851834238791948,0.10127464119268878,0.14623163914193876
694,272.185258,-2.30188679695129,-1.39687204360962,-2.53126263618469,0.989536363251355,0.10042566425946327,0.15115684392500917
695,272.19359099999997,-2.36610150337219,-1.75150108337402,-2.74596095085144,0.9877904580563918,0.10099509540869285,0.14542456792325406
696,272.20192399999996,-2.27129101753235,-2.03396248817444,-2.97125148773193,0.9866665820686182,0.09752333772425713,0.14547268955075
697,272.210257,-2.36634564399719,-2.34563636779785,-3.39852261543274,0.9870645951251592,0.09614155608780509,0.1438385248184204
698,272.21859,-2.24262881278992,-2.60095906257629,-3.72441244125366,0.9846771006681478,0.09233595157156224,0.14369072962780408
699,272.226923,-2.11212420463562,-2.71230411529541,-3.81718754768372,0.9850210073042887,0.08649625948497244,0.13891027898204591
700,272.235256,-2.20559072494507,-2.88535404205322,-3.91546869277954,0.9830619850937204,0.08797385254684795,0.14069212942707243
701,272.243589,-1.99077689647675,-2.96459150314331,-3.86789059638977,0.9820983847793265,0.08891301495688264,0.13992128323535508
702,272.251922,-2.141273021698,-2.69211983680725,-3.87072086334229,0.9758776061388906,0.09173956452583774,0.1403967701658908
703,272.260255,-2.33473753929138,-2.38375043869019,-3.93734359741211,0.975881206746004,0.0912934115954806,0.14522216757949488
704,272.26858799999997,-2.58939433097839,-2.04459261894226,-3.54903197288513,0.9759432928902765,0.09300596859990305,0.14686449449889488
705,272.276921,-3.16458773612976,-1.57595443725586,-3.30316090583801,0.9805606336009745,0.09440315621239795,0.15180270282589692
706,272.285254,-3.62318444252014,-1.62203431129456,-2.96159505844116,0.9834179586293743,0.0960144704701949,0.14966677646247756
707,272.293587,-4.1424880027771,-1.7830708026886,-2.63101720809937,0.9851399246527224,0.09778281255644183,0.1445758464385051
708,272.30192,-4.38244199752808,-2.06039643287659,-2.28478980064392,0.9885228410059091,0.10438809589463878,0.14139685095572957
709,272.310253,-4.31323194503784,-2.34425330162048,-2.2080237865448,0.986672226263552,0.1077008855586153,0.1351063105524806
710,272.318586,-4.15245151519775,-2.55347013473511,-2.02152681350708,0.9892371236061561,0.10734980203667449,0.13361707025644692
711,272.326919,-3.94958734512329,-2.93617272377014,-2.1102032661438,0.9846055750944173,0.10820703847067653,0.13771355152130102
712,272.33525199999997,-3.84502935409546,-2.9019775390625,-1.98861241340637,0.9851211431075111,0.1070691493092755,0.1392088617597306
713,272.34358499999996,-3.83902311325073,-3.00152683258057,-1.93142855167389,0.9841836228662613,0.10209020303220202,0.14401063627126223
714,272.351918,-3.90873193740845,-3.04426455497742,-2.08976292610168,0.982970412896604,0.09615828188098163,0.14625814496254386
715,272.360251,-4.23326444625854,-3.05953073501587,-1.98853552341461,0.9825715240167111,0.0941929951006051,0.1493952955518449
716,272.368584,-4.14944219589233,-3.27050280570984,-1.9232577085495,0.9836715581465744,0.08995644292052958,0.14387653798473163
717,272.376917,-4.00915288925171,-3.15216469764709,-1.73135590553284,0.9826130769690693,0.08942267724445918,0.13754701127811325
718,272.38525,-4.00901222229004,-3.52773308753967,-1.69010400772095,0.9847308178337254,0.09038232418955612,0.13988340387538978
719,272.393583,-4.15778017044067,-3.92967200279236,-1.77668035030365,0.9833450706637631,0.08844327561709386,0.13546404789905203
720,272.40191599999997,-4.40131998062134,-3.87969899177551,-1.87890696525574,0.983393143634407,0.09048569567349489,0.14139261780952958
721,272.41024899999996,-4.73648166656494,-3.74583840370178,-1.94906389713287,0.9817827964315612,0.09325274399348672,0.14271444203902245
722,272.418582,-4.89061594009399,-3.73591279983521,-1.8842214345932,0.9834341127045294,0.09636155804809285,0.14727766416510712
723,272.426915,-5.10348224639893,-3.83008360862732,-1.86932671070099,0.9820891399772795,0.10037934293552346,0.14622536240791836
724,272.435248,-5.1012544631958,-3.51054620742798,-1.91650819778442,0.9841715559667468,0.10356945650918163,0.14333985289748877
725,272.443581,-5.2637505531311,-3.62537431716919,-1.95195841789246,0.9840035925106122,0.10436677202886428,0.14651761979472858
726,272.451914,-5.3374171257019,-3.57737350463867,-1.9732950925827,0.9846136521319948,0.10365997041974796,0.14159504248171426
727,272.460247,-5.72370624542236,-3.80657029151917,-2.08033728599548,0.9895985467093326,0.10439021246773876,0.13599195042434997
728,272.46858,-6.11614227294922,-4.11842393875122,-2.17549395561218,0.9890711064241366,0.10450745115474797,0.1318285173299357
729,272.47691299999997,-6.39152097702026,-4.36127233505249,-2.16417288780212,0.989814485822405,0.10370117060992141,0.13146238667624385
730,272.48524599999996,-6.65767765045166,-4.52522850036621,-2.17854189872742,0.9849690417854152,0.10291966856742346,0.12977986919636633
731,272.493579,-6.45445394515991,-4.42428255081177,-2.3152961730957,0.9819142672480367,0.10085847913002449,0.13441552921217345
732,272.501912,-6.48543548583984,-4.28433990478516,-2.2897207736969,0.9810481752668111,0.10119165693010611,0.13637766546132654
733,272.510245,-6.54989385604858,-4.01194524765015,-2.18942832946777,0.9828420561187122,0.1005100413244602,0.13043575140894692
734,272.518578,-6.29249620437622,-3.91000080108643,-2.33345699310303,0.9860336537263825,0.10151994471647346,0.13438095851820306
735,272.526911,-6.32407855987549,-3.73751449584961,-2.44856762886047,0.9819313944602498,0.10134906793127244,0.13902060839594593
736,272.535244,-5.99900770187378,-3.83512997627258,-2.62576651573181,0.9836656220105223,0.10201952287128979,0.13890682434549184
737,272.54357699999997,-5.80936002731323,-3.87560057640076,-2.71285486221313,0.988055345963458,0.10723974023546529,0.13896490846361428
738,272.55190999999996,-5.43777465820312,-4.23817014694214,-2.92258429527283,0.9877303181862346,0.10801415054165611,0.13355474082791122
739,272.560243,-5.05973434448242,-4.57189750671387,-3.06346273422241,0.9854951196787306,0.10956855452790508,0.13307783068442855
740,272.568576,-5.0103759765625,-4.68649673461914,-3.4209611415863,0.9832842495976664,0.10869884977535305,0.1339174046808357
741,272.576909,-5.02131319046021,-4.68969821929932,-3.684326171875,0.9781906556109988,0.10771347551929693,0.13308312211717857
742,272.585242,-4.87687397003174,-4.37441205978394,-3.82961058616638,0.9777447642112264,0.10515959895386937,0.13193927249129897
743,272.593575,-5.11221790313721,-4.19867324829102,-3.96382904052734,0.9759671347481866,0.10440564885431429,0.1251287971224102
744,272.601908,-4.94407320022583,-4.00747537612915,-3.90672183036804,0.9756285803658621,0.10352039823726733,0.12165092692083264
745,272.610241,-4.91789531707764,-3.84290361404419,-4.04268217086792,0.9747325157632633,0.10138924024542958,0.12224474731756733
746,272.61857399999997,-5.04636287689209,-3.4003791809082,-3.8071722984314,0.9728961088219469,0.09910374271626325,0.129071826837501
747,272.62690699999996,-5.33746910095215,-3.05369091033936,-3.69093489646912,0.9740046092442102,0.09680553966638979,0.1354897143889449
748,272.63524,-5.67332315444946,-2.66891384124756,-3.38325643539429,0.9747977159461194,0.09512966992903775,0.13826757061238162
749,272.643573,-5.45127296447754,-2.18331909179688,-3.23920178413391,0.9795056557168765,0.09419062916113366,0.14152795684580918
750,272.651906,-5.24072360992432,-2.09083867073059,-2.84574127197266,0.980988035396654,0.09650755901725917,0.13821998421026732
751,272.660239,-4.88685035705566,-2.17610883712769,-2.84542155265808,0.9826131742827744,0.09683438709803979,0.1351093151131459
752,272.668572,-4.93229055404663,-2.44972014427185,-2.90092754364014,0.9828718341126733,0.09692936527485713,0.13738107924558673
753,272.676905,-4.9207501411438,-2.75054574012756,-2.9030659198761,0.9790780592937857,0.09513953510595816,0.13539999115223775
754,272.68523799999997,-4.96060609817505,-2.73146343231201,-2.82222747802734,0.9755745712591672,0.09846087012972142,0.13368196633397345
755,272.69357099999996,-4.85184860229492,-2.61376643180847,-2.71613383293152,0.9741988474008989,0.09404678733981428,0.13585259719770815
756,272.701904,-5.31246948242188,-2.25163197517395,-2.6819896697998,0.9750466444054428,0.09588634481235407,0.1363074049657704
757,272.710237,-5.60680246353149,-2.36853575706482,-2.60074138641357,0.9770379747663223,0.09979648857700611,0.13613597470886837
758,272.71857,-5.7859354019165,-2.12767195701599,-2.36740851402283,0.978667590082908,0.09987981343755917,0.13675425733838775
759,272.726903,-6.02268743515015,-2.15139079093933,-2.4732973575592,0.9780290175457388,0.09789106797198877,0.13934882319703365
760,272.735236,-6.13253402709961,-2.17414879798889,-2.43122625350952,0.9777313349198327,0.09339148292736121,0.14205082338683467
761,272.743569,-6.07416009902954,-1.72961413860321,-2.35804677009583,0.9759503967907958,0.09329166947578878,0.14152615654225204
762,272.751902,-6.08417558670044,-1.88939571380615,-2.30727910995483,0.9755129716834244,0.0970595406026255,0.13946039336068264
763,272.76023499999997,-6.18909072875977,-1.58742940425873,-2.14355278015137,0.9733415136531907,0.09547124103623979,0.14058790644820815
764,272.76856799999996,-6.08858060836792,-1.29524779319763,-2.02442097663879,0.9725446117167571,0.09664725284187142,0.14151852958056427
765,272.776901,-6.25120544433594,-1.03621101379395,-1.99096882343292,0.976420519303302,0.09769160528572245,0.14409315829374386
766,272.785234,-6.30530261993408,-0.86287951469421,-1.85736489295959,0.976633636318907,0.09687962580700306,0.1438186120013806
767,272.793567,-6.17323541641235,-0.80227619409561,-1.87765145301819,0.9788970558010804,0.09596623936477958,0.1450797246426949
768,272.8019,-6.08788919448853,-0.56798285245895,-1.7474799156189,0.9812638224387653,0.09590716386327959,0.1429710339526745
769,272.810233,-6.15556192398071,-0.44767281413078,-1.90728724002838,0.9831055816338989,0.0991790878529449,0.14377135403302244
770,272.818566,-5.786461353302,-0.28666177392006,-1.75967240333557,0.9851925713675368,0.09796818908379999,0.14435929911477244
771,272.82689899999997,-5.58969259262085,-0.38893935084343,-1.6549357175827,0.9858671499758346,0.09822611297879898,0.14704610620226224
772,272.83523199999996,-5.71848058700562,-0.28922313451767,-1.7337509393692,0.9886972271666234,0.09783387792353775,0.1505339388944663
773,272.843565,-5.55206489562988,-0.54836237430573,-1.72463190555573,0.9885939773248162,0.09592123785797448,0.14704122835276123
774,272.851898,-5.63254499435425,-0.88731551170349,-1.81446135044098,0.9901216078777704,0.09625250587657957,0.14362590653555712
775,272.860231,-5.67473173141479,-1.19576215744019,-1.83500397205353,0.9861064443782888,0.09398303469833061,0.14260765241116938
776,272.868564,-5.68121194839478,-1.17112147808075,-1.86246240139008,0.9878463161234948,0.09450535993186836,0.1416194317292194
777,272.876897,-5.68449020385742,-1.66032755374908,-1.79102420806885,0.9845691797684653,0.09648135730198469,0.1382714023395459
778,272.88523,-5.52268552780151,-1.89528703689575,-1.95049846172333,0.980908627412757,0.09778769648804998,0.13770374716544592
779,272.893563,-5.46469497680664,-1.89154732227325,-2.01527690887451,0.9765522820608957,0.09666332176753469,0.14180746613716633
780,272.90189599999997,-5.37896394729614,-1.52849102020264,-1.88233911991119,0.9747176267662826,0.09845132122234386,0.14451581604626734
781,272.910229,-5.4153618812561,-1.24299502372742,-1.94990932941437,0.9713776257573347,0.09593835290597448,0.14575656579465307
782,272.918562,-5.36207103729248,-0.93968379497528,-1.95665860176086,0.972241090268505,0.09901861755215408,0.14710734085160815
783,272.926895,-5.31828308105469,-0.69538801908493,-1.87603783607483,0.9721926280430386,0.10079631391836633,0.14558849286059897
784,272.935228,-5.34994268417358,-0.5207245349884,-1.85441923141479,0.9719673468142143,0.09655683624501121,0.15042712493818672
785,272.943561,-5.6873083114624,0.00140878290404,-1.86904501914978,0.9737823447402641,0.09812938923738468,0.1564417323287653
786,272.951894,-5.85059928894043,0.22863268852234,-1.74471378326416,0.9786797542961275,0.09905418571160714,0.15485349966555204
787,272.960227,-5.91763162612915,0.37606820464134,-1.74868392944336,0.9803393422340856,0.0994571374387153,0.1544361211815663
788,272.96855999999997,-5.80916786193848,0.2038508951664,-1.72159695625305,0.9831552116238337,0.10126915513252754,0.14858472103975306
789,272.97689299999996,-5.65947818756104,0.07657375186682,-1.73934733867645,0.9840470917370856,0.0998753978281602,0.1401347043562908
790,272.985226,-5.59563398361206,-0.04276296496391,-1.63723611831665,0.9809788879083121,0.09717229677706325,0.14324898622473878
791,272.993559,-5.88963508605957,-0.21468572318554,-1.7129008769989,0.9825522559029712,0.09500309520838163,0.14464403901781325
792,273.001892,-6.0738787651062,-0.32131779193878,-1.58526539802551,0.9827825001307897,0.09349333388464795,0.14523035409499183
793,273.010225,-6.1107120513916,-0.27344477176666,-1.46008837223053,0.9862909511644009,0.09539536067417653,0.14295674100214079
794,273.018558,-5.85911560058594,-0.24520507454872,-1.33822846412659,0.9866330088401326,0.09563825568374286,0.14195934850342448
795,273.026891,-5.77343511581421,-0.33347171545029,-1.46063888072968,0.985519253477758,0.09628018554376122,0.14323528932065405
796,273.03522399999997,-5.38946580886841,-0.42705330252647,-1.45568263530731,0.983191898890904,0.09943152568778163,0.14230763425632448
797,273.04355699999996,-5.26551818847656,-0.49972093105316,-1.57396924495697,0.9831766206390999,0.1010356691418857,0.1422658501839153
798,273.05189,-5.27983713150024,-0.80517071485519,-1.81520414352417,0.9826523917061938,0.10164585040540101,0.13824685495726938
799,273.060223,-5.17686700820923,-1.01776874065399,-1.98067188262939,0.9827103906748244,0.10246711117880714,0.14039773113873572
800,273.068556,-5.25755214691162,-1.02114999294281,-2.00805354118347,0.9820902104280429,0.10409220140807447,0.1425932986395704
801,273.076889,-5.32558393478394,-0.99517703056335,-2.07431769371033,0.9801051081443315,0.10347796946155816,0.14650659901755203
802,273.085222,-5.40970134735107,-0.7254079580307,-1.97626614570618,0.9790715392755,0.10358669319931325,0.14788790624968876
803,273.093555,-5.48539066314697,-0.7499463558197,-1.87642204761505,0.9809332477803132,0.10093873860884693,0.14993447430279797
804,273.101888,-5.474684715271,-0.52144181728363,-1.73247015476227,0.9802933128512631,0.0999099685221306,0.1500157920681704
805,273.11022099999997,-5.51079988479614,-0.54352122545242,-1.73072826862335,0.9788221242476478,0.10041660192061429,0.1555501198282051
806,273.11855399999996,-5.20179033279419,-0.65099865198135,-1.68802928924561,0.9791878291538785,0.1030497040067398,0.14911150445743468
807,273.126887,-4.94208765029907,-0.81439185142517,-1.56123888492584,0.9800464279797612,0.1033097870495857,0.1432767814519449
808,273.13522,-4.9476580619812,-0.94388455152512,-1.55533468723297,0.9815490489103357,0.1021803520163714,0.14396154150670917
809,273.143553,-4.77770805358887,-0.90338850021362,-1.6246725320816,0.9796056942063938,0.10113556774295102,0.1436384964962398
810,273.151886,-4.73763418197632,-0.75179052352905,-1.6455864906311,0.979836619630152,0.10268339088984897,0.1507259510001357
811,273.160219,-4.89152479171753,-0.91999930143356,-1.85336911678314,0.9799581644486407,0.10585506351626632,0.1523002069823592
812,273.168552,-4.68512582778931,-0.75432634353638,-1.77286350727081,0.9784783149252132,0.10492146015167245,0.1483732826855714
813,273.17688499999997,-4.39267492294312,-0.50757169723511,-1.76478242874146,0.9806741013818857,0.10716641435817754,0.14596445219857346
814,273.18521799999996,-3.67163395881653,-0.49719786643982,-1.75089943408966,0.9816921000577968,0.10508427814561529,0.14600939896641937
815,273.193551,-2.88198590278625,-0.45986518263817,-1.97357702255249,0.9791230182258448,0.10891475239578571,0.14668240839121327
816,273.201884,-2.42318367958069,-0.5493101477623,-1.95592868328094,0.9802456291354428,0.10635564521867448,0.14535195973454693
817,273.210217,-2.36088943481445,-0.63335037231445,-1.8569039106369,0.980080098521953,0.10362813667375205,0.14995265980156122
818,273.21855,-2.40835285186768,-0.53929495811462,-1.82158195972443,0.9777843708894693,0.10406355468594286,0.14414582933698367
819,273.226883,-2.3570990562439,-0.55873614549637,-1.73887360095978,0.9775092650432979,0.10243313653128469,0.14349807281883367
820,273.235216,-2.36634540557861,-0.51549923419952,-1.66469478607178,0.9758373182647082,0.10178565979003877,0.14033228767161426
821,273.243549,-2.46242427825928,-0.49265131354332,-1.53900551795959,0.9754184800751357,0.09868112145637958,0.1406152515995255
822,273.25188199999997,-2.66014075279236,-0.14586026966572,-1.594691157341,0.979461280667052,0.0983454013357357,0.14342337238545305
823,273.26021499999996,-2.55012774467468,0.23326887190342,-1.39310717582703,0.9771893948924786,0.09564145487182041,0.14178149554194286
824,273.268548,-2.461092710495,0.31190454959869,-1.36162710189819,0.9787457329886295,0.09720103473079489,0.13957445718804184
825,273.276881,-2.25827884674072,0.48587641119957,-1.37661135196686,0.978588084785306,0.09733496880044692,0.13542523189466835
826,273.285214,-2.19437170028687,0.54896432161331,-1.3513046503067,0.9813509182054172,0.09698027858928775,0.13766611108974489
827,273.293547,-2.23794150352478,0.57375890016556,-1.25835049152374,0.9801742008754183,0.09692746157548877,0.1425552733090459
828,273.30188,-2.29646992683411,0.55954295396805,-1.15556073188782,0.9832243043549205,0.0963993157659255,0.14147622244698674
829,273.310213,-2.025714635849,0.39070674777031,-1.25108897686005,0.988247248591209,0.09367236677481224,0.13473069181247652
830,273.31854599999997,-1.81645917892456,0.06167908385396,-1.29759156703949,0.9879154088545816,0.09352167650144898,0.13658719403403163
831,273.32687899999996,-1.823810338974,-0.20748810470104,-1.36613523960114,0.9866597701092154,0.09099717042884081,0.1348202569144112
832,273.335212,-1.73912966251373,-0.1316187530756,-1.49115824699402,0.9860498078015387,0.0917926795628602,0.1376672301973612
833,273.343545,-1.76297652721405,-0.29437157511711,-1.46866881847382,0.9882212658317725,0.08985117990143468,0.13511712453803265
834,273.351878,-1.94939684867859,-0.53632366657257,-1.47112798690796,0.9864936556134908,0.0877868703433449,0.14153369835444896
835,273.360211,-2.38647818565369,-0.55978631973267,-1.44994485378265,0.9860870789508428,0.08978473896882959,0.13714144424516325
836,273.368544,-2.68862390518188,-0.66816014051437,-1.40934646129608,0.9844077363306163,0.09000821989409795,0.14126157274051632
837,273.376877,-3.0978627204895,-0.47615587711334,-1.4487669467926,0.9835129368061918,0.09041151830128265,0.1460995357863755
838,273.38521,-3.18879342079163,-0.38266387581825,-1.39938259124756,0.9846089810741194,0.09122550487518265,0.14300274605653673
839,273.39354299999997,-2.90387296676636,-0.42926892638206,-1.42951762676239,0.9838283305265468,0.0957576048617459,0.14111112575141735
840,273.401876,-2.64205718040466,-0.56122076511383,-1.69466328620911,0.9809557272463428,0.09745110054405406,0.14347022893477446
841,273.410209,-2.61500859260559,-0.46460378170013,-1.68533992767334,0.9815479784595724,0.09584882429667856,0.14400737626211937
842,273.418542,-2.73647117614746,-0.60788983106613,-1.82250392436981,0.9819366494003612,0.09804175824535101,0.14285686064739592
843,273.426875,-2.85109519958496,-0.66221767663956,-1.75964677333832,0.9826556030584835,0.09736503265341938,0.14504572566674692
844,273.435208,-2.88585329055786,-0.9726876616478,-1.75306379795074,0.9827490242160091,0.1005221690450398,0.14310033953919693
845,273.443541,-2.78060483932495,-1.08329021930695,-1.62286698818207,0.9848035111719244,0.10018165014228061,0.13995101257246326
846,273.451874,-2.38888621330261,-1.19950187206268,-1.52993834018707,0.9849184386584224,0.09910008128808469,0.13753663520423776
847,273.46020699999997,-2.04002022743225,-1.3857684135437,-1.68426394462585,0.981880791333257,0.10199392936667652,0.1305796297229061
848,273.46853999999996,-1.87137603759766,-1.36025667190552,-1.60511589050293,0.9817505855949561,0.100476583656,0.13591807715746837
849,273.476873,-1.77847301959991,-1.12529742717743,-1.50988233089447,0.9805972235543386,0.09843835417105204,0.13963859908434795
850,273.485206,-2.08630514144897,-0.90708976984024,-1.42760944366455,0.9795844798185387,0.0967148067999857,0.14359000994234694
851,273.493539,-2.30812382698059,-0.68603885173798,-1.13419818878174,0.9819537766125734,0.09338985292278978,0.1435585532869612
852,273.501872,-2.30307817459106,-0.62072253227234,-1.25686490535736,0.9834481258781592,0.09212186141889897,0.1417655239299847
853,273.510205,-2.38325095176697,-0.63158303499222,-1.27159309387207,0.9829692451321347,0.09212515792068163,0.14067473460216937
854,273.518538,-2.10899925231934,-0.64894944429398,-1.20146119594574,0.9780650236168684,0.0924501066305204,0.1385747413246
855,273.52687099999997,-2.01078176498413,-0.72454994916916,-1.19980931282043,0.9770461491176061,0.09416950600487856,0.1423258562477265
856,273.53520399999996,-1.84686315059662,-0.55217885971069,-1.34228837490082,0.9763994995428591,0.0961578622156255,0.14774185054156225
857,273.543537,-1.80506062507629,-0.37538939714432,-1.4211802482605,0.9794019193065407,0.0965751190574806,0.14595013491961426
858,273.55187,-1.60170948505402,-0.37062519788742,-1.52353489398956,0.9807287916845204,0.09693732675240917,0.14704076611265815
859,273.560203,-1.63769745826721,-0.41253009438515,-1.71307992935181,0.979398707954251,0.09485759905406428,0.14298402533239285
860,273.568536,-1.58879971504211,-0.51716423034668,-1.77606546878815,0.9810988757075091,0.09623573142655,0.13754805740045
861,273.576869,-1.48138666152954,-0.61948025226593,-1.87079977989197,0.9836220254703448,0.09296398381797652,0.13526505353499385
862,273.585202,-1.51474905014038,-0.52671831846237,-1.97982680797577,0.9782725937512459,0.08940702190204591,0.13507694614176835
863,273.593535,-1.37215447425842,-0.10567152500153,-1.98950862884521,0.9751741253599826,0.0922471163224204,0.13303105928459896
864,273.60186799999997,-1.45647668838501,0.06726297736168,-2.03392386436462,0.9752001081194194,0.0917921686659051,0.13688142202338366
865,273.61020099999996,-1.32338511943817,0.50424188375473,-2.17685151100159,0.9771187451421,0.09291154997689387,0.13397329924057957
866,273.618534,-1.22894525527954,0.85379928350449,-2.12329196929932,0.9801049135169204,0.09618358952658469,0.1352161290694255
867,273.626867,-1.0086886882782,0.68349021673203,-2.22108721733093,0.9816193094058908,0.09369063742306734,0.13379537329381835
868,273.6352,-1.18826997280121,0.66689223051071,-2.07956862449646,0.9788421708710335,0.09041338550801223,0.13762937516582244
869,273.643533,-1.04219198226929,0.77098852396011,-1.9596940279007,0.9787054451144469,0.08811975012020203,0.1378710294256408
870,273.651866,-1.21918618679047,1.08632528781891,-1.82870268821716,0.9792329827133489,0.08674463447259387,0.13800658741775818
871,273.660199,-1.12428569793701,1.21821308135986,-1.79268908500671,0.9815867093144632,0.08601477559731939,0.1350086805771806
872,273.66853199999997,-1.04664885997772,1.44889485836029,-1.73136878013611,0.9837518419538223,0.08682257058669081,0.13382277926620204
873,273.67686499999996,-0.76235640048981,1.34218573570251,-1.7922021150589,0.9910915335830376,0.08791101222135611,0.12740142491398979
874,273.685198,-0.66517603397369,1.0235960483551,-1.86430633068085,0.9930992126464847,0.09245420597037447,0.12537919745153264
875,273.693531,-0.4168972671032,0.63858842849731,-1.64679026603699,0.992455385169204,0.0946635311963602,0.12252181160206733
876,273.701864,-0.59350746870041,0.3246091902256,-1.65803503990173,0.9912280647122131,0.09392702457856122,0.12259747300829182
877,273.710197,-0.6921095252037,-0.05271409824491,-1.42580366134644,0.9905556270054408,0.09627361686862244,0.11825109014705715
878,273.71853,-1.02044546604156,-0.19140236079693,-1.32289838790894,0.9903359899715499,0.09269633463450816,0.11317611957082958
879,273.726863,-1.67745065689087,-0.58219873905182,-1.16222023963928,0.9891568397989081,0.08909881114959693,0.11599147806362245
880,273.735196,-2.21942210197449,-0.63867819309235,-1.20412528514862,0.9873633482018295,0.08333750525299388,0.11333674800639286
881,273.74352899999997,-2.61203694343567,-0.64426201581955,-1.04436910152435,0.9872621419478439,0.08091042844616632,0.11719030993325408
882,273.75186199999996,-2.75452947616577,-0.72420412302017,-0.87103778123856,0.985448214472556,0.07936433261754591,0.11332341602870406
883,273.760195,-2.72187089920044,-0.34526705741882,-0.89585787057877,0.981360844203404,0.08279971930445408,0.11379417108029694
884,273.768528,-2.38775897026062,-0.36721849441528,-0.83904552459717,0.9807304460175182,0.0860809367530204,0.1161572641255908
885,273.776861,-2.30187463760376,-0.34244954586029,-0.76950287818909,0.9799209906130418,0.08705669519852652,0.11387372503475304
886,273.785194,-2.49805378913879,-0.14053250849247,-0.83335912227631,0.978518700113102,0.086016369109251,0.11673275305300305
887,273.793527,-2.75880694389343,-0.0558262206614,-1.0422945022583,0.9800046803999918,0.08928469249180407,0.1163105332121561
888,273.80186,-3.22816205024719,-0.33117926120758,-1.11094057559967,0.9824672037241408,0.09234651010863673,0.1158910989761357
889,273.81019299999997,-3.55023527145386,-0.08097939938307,-1.13903939723969,0.9831869358919102,0.0987175836855051,0.12160134558775
890,273.81852599999996,-3.71214294433594,0.19523170590401,-1.3965904712677,0.986958036617357,0.09664707646077958,0.1308620340970102
891,273.826859,-4.03903198242188,0.11208789050579,-1.47540557384491,0.9855322935143295,0.09891672402012143,0.1322644948959347
892,273.835192,-4.20405197143555,0.09201914072037,-1.5254430770874,0.987409377584652,0.09923803563020714,0.1283285325887255
893,273.843525,-4.15663957595825,-0.00732567161322,-1.37298703193665,0.9887685581129427,0.09766095146840918,0.12615420380417142
894,273.851858,-4.20470523834229,-0.32454517483711,-1.43293726444244,0.9882768319577592,0.10167661370063263,0.1258016484124316
895,273.860191,-4.17460823059082,-0.71372783184052,-1.45266008377075,0.9822508753562458,0.10484245358681223,0.12809536894973467
896,273.868524,-3.93675470352173,-0.52720499038696,-1.41708207130432,0.9759069948780295,0.10997060610323571,0.1341601050629908
897,273.876857,-3.84469652175903,-0.38512283563614,-1.47730100154877,0.9748711877939652,0.1105223748148704,0.13413048520380103
898,273.88518999999997,-3.83222246170044,-0.18125914037228,-1.55895912647247,0.974759374346052,0.11349527203306836,0.13913200826061017
899,273.89352299999996,-3.86103844642639,0.66704589128494,-1.47883772850037,0.9749851421434049,0.1121688010741255,0.14080219122828264
900,273.901856,-4.03849411010742,-0.05239392071962,-1.81661283969879,0.97683488106241,0.10941496917179692,0.13887348223705714
901,273.910189,-4.27178859710693,0.39645713567734,-1.45550334453583,0.9749992526307397,0.1023718532250847,0.14200281123725714
902,273.918522,-4.55802774429321,0.76348352432251,-1.36147356033325,0.9767841806217111,0.10198068253848061,0.14240059317374693
903,273.926855,-4.87482452392578,0.76350909471512,-1.18906402587891,0.9775765088139744,0.09876495113178162,0.1393003123147143
904,273.935188,-5.15103530883789,0.45545947551727,-1.28735840320587,0.9826616365082408,0.09413325664948469,0.14445517744336836
905,273.943521,-5.43938779830933,0.22947795689106,-1.00420606136322,0.9788750629035795,0.09538843315474795,0.13496457314004692
906,273.95185399999997,-5.83517932891846,0.46932968497276,-0.90328603982925,0.9814423930888274,0.09366796332962653,0.13411234836189082
907,273.96018699999996,-6.06762790679932,0.34968554973602,-0.79017353057861,0.9839826700638754,0.09528487312550407,0.12864350056161736
908,273.96852,-6.32172107696533,0.36085334420204,-0.65003800392151,0.9855490314717192,0.09666751233898876,0.1252347595837653
909,273.976853,-6.51077938079834,0.12215426564217,-0.77180808782578,0.9877201002471305,0.09284430620621631,0.1267076876698704
910,273.985186,-6.66305685043335,-0.48107376694679,-0.86432671546936,0.9834519211126836,0.09854899985449693,0.12523083054289488
911,273.993519,-6.70370626449585,-0.13356541097164,-0.98158872127533,0.9837238156065652,0.09825780075423571,0.12649686969056428
912,274.001852,-6.51772117614746,0.22453439235687,-1.01934409141541,0.9821564810616632,0.10052597036167041,0.12688028569124182
913,274.010185,-6.3122181892395,0.06265241652727,-1.43913567066193,0.9857926076772264,0.09951081811165305,0.13053010921088978
914,274.018518,-6.26974964141846,0.0005891273031,-1.54638254642487,0.9794625457452265,0.09985030305628877,0.1355324472699847
915,274.02685099999997,-6.55317115783691,0.25583496689796,-1.61144268512726,0.9792089462280275,0.09821928277307652,0.13809359803491733
916,274.035184,-6.87729454040527,0.55401033163071,-1.4788635969162,0.9816472384394427,0.09662881797673775,0.14603431127509284
917,274.043517,-7.07330703735352,0.03925381973386,-1.49724173545837,0.9800993666356929,0.1005350752752653,0.14537024254701528
918,274.05185,-7.28035926818848,0.06080819293857,-1.35655546188354,0.9786580533397439,0.0961077030824153,0.14432557991572753
919,274.060183,-7.35087490081787,0.20137910544872,-1.28468191623688,0.9786087152909255,0.0974362966965653,0.14799228736332448
920,274.068516,-7.39459943771362,-0.10344308614731,-1.24144518375397,0.9768712763883632,0.09474617486097346,0.14268761994887347
921,274.076849,-7.69159746170044,0.18083652853966,-1.09831297397614,0.9772881683038203,0.09527699679744489,0.14530416654080713
922,274.085182,-7.69759082794189,0.58210921287537,-0.98184514045715,0.9768074385973866,0.0936937636258653,0.14412719376233163
923,274.09351499999997,-7.80470943450928,0.70723479986191,-0.97177863121033,0.9786278860909601,0.09110571170339796,0.14447577145634896
924,274.10184799999996,-7.69920444488525,1.19849026203156,-0.9999030828476,0.978812100935955,0.0937097291557153,0.14163095123913774
925,274.110181,-7.42987060546875,0.57529580593109,-1.19434058666229,0.9785558739487009,0.09632987027265612,0.14095255306788876
926,274.118514,-7.73511600494385,1.13194441795349,-1.18030416965485,0.9826094763619561,0.09548617260796631,0.1422124614520949
927,274.126847,-7.87924718856812,0.67403870820999,-1.37901937961578,0.9830558543302571,0.09377708848641836,0.14227636006413674
928,274.13518,-8.00711345672607,0.59614580869675,-1.37128400802612,0.985241033593003,0.09516961112314387,0.13843375809338673
929,274.143513,-8.03497982025146,0.39860868453979,-1.45186603069305,0.9850793955277428,0.0915938433335755,0.13760406143811327
930,274.151846,-7.96526002883911,0.27102428674698,-1.56684875488281,0.982392953366649,0.09156368824900409,0.13665018033008164
931,274.16017899999997,-8.21435737609863,0.41231232881546,-1.65829110145569,0.9826983237753112,0.09005214486803366,0.1424199707654061
932,274.16851199999996,-8.6942138671875,0.4910760819912,-1.56036782264709,0.9860135097892918,0.08807609275895713,0.14335351330893364
933,274.176845,-9.17988681793213,0.53223830461502,-1.60862553119659,0.9869615399107642,0.08609122767740408,0.14388367837789082
934,274.185178,-9.42309379577637,0.51756131649017,-1.64830183982849,0.9863318229208183,0.08630020886051427,0.14165435518537242
935,274.193511,-9.41811180114746,0.49841466546059,-1.6076648235321,0.9874005220374286,0.09105917750572654,0.1400961073077459
936,274.201844,-9.22506999969482,0.35544881224632,-1.72132802009583,0.9826090871071327,0.0939179865681398,0.1391980721026051
937,274.210177,-9.29766082763672,0.24743355810642,-1.73779785633087,0.980779297497808,0.09832443631425203,0.14014455736899897
938,274.21851,-9.17568683624268,0.49135795235634,-1.82219672203064,0.979494367327009,0.09681074594964795,0.14216988670582653
939,274.226843,-9.15837097167969,0.60224193334579,-1.71115911006927,0.980162036662199,0.09970623619702346,0.14459231678320406
940,274.23517599999997,-8.92976379394531,1.0135041475296,-1.85044956207275,0.9809748980463765,0.10070248525969795,0.14714386998390713
941,274.24350899999996,-8.74715995788574,1.37207794189453,-1.85518801212311,0.9822108794231805,0.10295978614262143,0.14449370150663365
942,274.251842,-8.42872142791748,1.2533301115036,-1.95877146720886,0.9830719110917071,0.10611366252509896,0.14261842990408163
943,274.260175,-8.1833381652832,1.08542895317078,-1.90736413002014,0.986065280680754,0.10562949034632448,0.13882736770474183
944,274.268508,-7.83490943908691,0.71507281064987,-1.97157919406891,0.9855230487122825,0.10534374081358572,0.13061255824809181
945,274.276841,-7.55709743499756,0.52268415689468,-1.94004797935486,0.9852738283118417,0.10462281655292141,0.12988985801229694
946,274.285174,-7.5254111289978,0.55362612009048,-1.76853501796722,0.9814138801730409,0.10220038647554387,0.1312619690992398
947,274.293507,-7.63793611526489,0.78233569860458,-1.63285648822784,0.9804568971906387,0.10026653810423265,0.1333073328952398
948,274.30183999999997,-7.4832763671875,0.99462658166885,-1.6193835735321,0.9838016665711692,0.1006630671267602,0.13146163249502346
949,274.31017299999996,-7.21714401245117,1.12861454486847,-1.7550106048584,0.9837537882279378,0.10077885219028979,0.12708275902027957
950,274.318506,-6.68408536911011,1.39413154125214,-1.68193304538727,0.9875785088052551,0.10045532061129182,0.12434755052838979
951,274.326839,-6.2501802444458,1.17566776275635,-1.85057747364044,0.9916510873911337,0.10465402992404284,0.12454312674853263
952,274.335172,-5.68069934844971,0.94744503498077,-1.75600945949554,0.988230316006407,0.10638117790222142,0.12208576105078876
953,274.343505,-5.32353496551514,0.68856191635132,-1.95490407943726,0.9883870883863795,0.1043698009179561,0.12351596842006733
954,274.351838,-5.16370248794556,0.20524688065052,-1.80649518966675,0.989999576490753,0.10563731193542449,0.12109314908786734
955,274.360171,-5.20222568511963,-0.17836473882198,-1.80990195274353,0.992772433222556,0.10769702950302448,0.1167282644583255
956,274.368504,-5.37466049194336,-0.22137103974819,-1.76825320720673,0.9911233551648194,0.10527996384367652,0.1178996781913602
957,274.37683699999997,-5.52493953704834,-0.54170268774033,-1.4890068769455,0.9912960869925368,0.10519043523438162,0.1195039189591704
958,274.38516999999996,-5.74744987487793,-0.55863362550735,-1.4024817943573,0.9876588899262102,0.10297866500153875,0.12335233542383978
959,274.393503,-5.85943508148193,-0.71664780378342,-1.27231025695801,0.9872813127478774,0.10363232116309999,0.12394873463377654
960,274.401836,-5.78853511810303,-0.66208952665329,-1.26979994773865,0.9876015721535194,0.1029498966372745,0.1237999784703153
961,274.410169,-5.49466323852539,-0.70694005489349,-1.20712196826935,0.9857653598396143,0.10436384045347856,0.12505206526542242
962,274.418502,-5.3948187828064,-0.82589262723923,-1.22753667831421,0.9880221619897959,0.10581945886417346,0.12432397628317039
963,274.426835,-5.137779712677,-0.90101903676987,-1.152179479599,0.9877250632461234,0.10883585530884386,0.12916614814680408
964,274.435168,-4.89521312713623,-1.09909403324127,-1.31529080867767,0.9862058016718651,0.11164938916965408,0.13015113314803775
965,274.44350099999997,-4.73251152038574,-1.1571102142334,-1.40791201591492,0.9859636851719449,0.11506783718965509,0.12816441302396836
966,274.45183399999996,-4.6511869430542,-1.36310005187988,-1.3585022687912,0.9862254590404275,0.11487859852459999,0.12889700276511018
967,274.460167,-4.29893970489502,-1.32478094100952,-1.48001623153687,0.9874703932781612,0.11699776260220306,0.13062010006028776
968,274.4685,-4.04707431793213,-1.4613049030304,-1.61618149280548,0.9874619269857601,0.11472646070986427,0.13160577842167448
969,274.476833,-3.67595028877258,-1.47877383232117,-1.68841373920441,0.9839707004780673,0.11462547341171529,0.13039546353476428
970,274.485166,-3.25984644889832,-1.43743216991425,-1.7022705078125,0.9837869722015999,0.11348713417442448,0.13343828065054794
971,274.493499,-3.02299189567566,-1.4909405708313,-1.71945786476135,0.9821920005642643,0.11301914039923265,0.13057377873634796
972,274.501832,-2.99691653251648,-1.63353490829468,-1.75518977642059,0.9813307742683254,0.11288899548199693,0.12675832728950306
973,274.510165,-2.86651420593262,-1.51652884483337,-1.72142994403839,0.9838253138016683,0.11184882144538673,0.12746044567653061
974,274.51849799999997,-2.9042444229126,-1.67090630531311,-1.42051422595978,0.9834706053441887,0.11105702847850611,0.12981752960049386
975,274.526831,-2.9141058921814,-1.66209495067596,-1.49728000164032,0.9823323269279631,0.10792209177601121,0.13087492816302246
976,274.535164,-2.87596654891968,-1.61578452587128,-1.31016826629639,0.9800273544934325,0.10626313637713977,0.13239102704184386
977,274.543497,-2.73437070846558,-1.69447124004364,-1.30906665325165,0.9811523009319694,0.10783096965478367,0.1301863728737347
978,274.55183,-2.3143744468689,-1.43092632293701,-1.43654870986938,0.9810754231044224,0.10938959462302039,0.1318454985715908
979,274.560163,-2.1971378326416,-1.30129277706146,-1.3768675327301,0.9794040602080674,0.10767102241516122,0.1322036981582643
980,274.568496,-1.97524189949036,-1.44836986064911,-1.45903825759888,0.9794184626365193,0.1085778766748857,0.1285951356498561
981,274.576829,-2.007976770401,-0.99082267284393,-1.19060087203979,0.9782606241654378,0.11087720491448265,0.12456179881582446
982,274.58516199999997,-1.92503786087036,-1.16681802272797,-1.36639142036438,0.9860549654279438,0.10873495316018876,0.12930095195770305
983,274.59349499999996,-2.09188890457153,-1.34803867340088,-1.23104560375214,0.9760301940295162,0.10656367759315305,0.12951509076721837
984,274.601828,-2.33673548698425,-0.75166249275208,-1.33186316490173,0.9818692110022723,0.10608106243367142,0.1319110515166306
985,274.610161,-2.45973491668701,-0.80445343255997,-1.26752042770386,0.9845675254354672,0.1036689354448898,0.1297849295090653
986,274.618494,-2.5363986492157,-0.91392874717712,-1.29344213008881,0.9858384424326366,0.1004967275930908,0.1260631425040112
987,274.626827,-2.38012599945068,-1.03300929069519,-1.20148694515228,0.9841490765007173,0.10104870917845712,0.125382250669051
988,274.63516,-2.30289912223816,-1.19110035896301,-1.12671899795532,0.985657828194754,0.10261726622678774,0.1259344694565755
989,274.643493,-2.00966739654541,-1.20454788208008,-1.27182364463806,0.9823334946924326,0.10312504914342142,0.1305854442168255
990,274.65182599999997,-1.81295013427734,-1.40549159049988,-1.23557949066162,0.9793532624536632,0.10288940400493367,0.1352284635816306
991,274.66015899999996,-1.74494409561157,-1.27160573005676,-1.35363531112671,0.9741191474758847,0.10177899380119489,0.13806866139781734
992,274.668492,-1.99580991268158,-0.87015396356583,-1.36129415035248,0.9720082185706315,0.09887870477170407,0.1345079164115755
993,274.676825,-2.28719758987427,-0.47367122769356,-1.32133591175079,0.9713496967237826,0.0984923024566806,0.13372628056273164
994,274.685158,-2.57361602783203,-0.29524251818657,-1.33391261100769,0.9762441868684735,0.10232604279810102,0.13096732752663776
995,274.693491,-2.82184362411499,-0.28527855873108,-1.46154832839966,0.9790088692489939,0.10005047734902855,0.12996691830304183
996,274.701824,-3.07099342346191,0.34886589646339,-1.35814380645752,0.9815618943194948,0.09957179123041529,0.13260139494526121
997,274.710157,-3.18794822692871,-0.10866839438677,-1.56787300109863,0.9859371185302733,0.09751505997716121,0.1315815838015806
998,274.71849,-3.10326671600342,-0.02508914098144,-1.4775059223175,0.9827191489083428,0.09713307327153775,0.1306464599103347
999,274.72682299999997,-2.97622036933899,-0.00067877722904,-1.29408228397369,0.9864166804722376,0.09625065691617041,0.12806397311541529
1000,274.73515599999996,-2.91318392753601,-0.26319906115532,-1.32858467102051,0.9867685668322499,0.09702851577680918,0.12591296312760306
1001,274.743489,-2.83147430419922,-0.35728016495705,-1.36920893192291,0.9871793279842459,0.09805083883051938,0.12428311669096631
1002,274.751822,-2.78239727020264,-0.58993422985077,-1.57445573806763,0.9857070689298674,0.10297552663452755,0.12885650809930305
1003,274.760155,-2.63696026802063,-0.71449625492096,-1.63198530673981,0.9854224263405316,0.10067932459772856,0.12827430452619284
1004,274.768488,-2.61923480033875,-0.74477225542068,-1.67855215072632,0.9859127901038346,0.10334772723061733,0.12434330521797653
1005,274.776821,-2.53004622459412,-0.78229719400406,-1.75255179405212,0.9855484475894846,0.10433741978236631,0.12222415330458673
1006,274.785154,-2.23535418510437,-0.93721199035645,-1.93966341018677,0.988474573407854,0.10557607728607754,0.12134021642256734
1007,274.79348699999997,-2.27789998054504,-1.38138854503632,-2.07641816139221,0.9878882583306754,0.10252667933094285,0.12102051657073366
1008,274.80181999999996,-2.3239541053772,-1.40013825893402,-2.03630614280701,0.9852571876681581,0.10264386936109897,0.12173943373621735
1009,274.810153,-2.20146679878235,-1.56232762336731,-2.01099944114685,0.9860453313710734,0.0999952274925857,0.12574322369633875
1010,274.818486,-2.34669971466064,-1.34809017181396,-2.03751039505005,0.984465735299247,0.09734830686024284,0.12933035286105407
1011,274.826819,-2.83260130882263,-1.14858055114746,-1.98761320114136,0.9808567592075897,0.09625773040615816,0.13755219323294487
1012,274.835152,-2.78636789321899,-0.88956964015961,-2.15523314476013,0.9797360945721061,0.09987618241991326,0.13269580140405815
1013,274.843485,-2.73398685455322,-0.93042439222336,-2.10810279846191,0.9795591782550418,0.09910779339926631,0.12679528216926428
1014,274.851818,-2.73603582382202,-0.9849825501442,-2.20512938499451,0.9818165642874581,0.09091147354670918,0.12127974811865408
1015,274.860151,-2.98464727401733,-1.08464753627777,-2.20438647270203,0.9820570264543805,0.08743919888321224,0.11935437212184999
1016,274.86848399999997,-3.7731306552887,-0.82271647453308,-2.2808198928833,0.9802766722075794,0.07748821560217449,0.12830986052143367
1017,274.87681699999996,-4.41940355300903,-0.52285063266754,-2.19724059104919,0.9803575398970621,0.07184260353750102,0.14106558293712346
1018,274.88515,-4.68241024017334,0.4140028655529,-2.12096095085144,0.9775937333398939,0.06695766838229388,0.13863753299323878
1019,274.893483,-4.37201690673828,1.3376522064209,-1.87414228916168,0.9827662487419285,0.06695343523609387,0.13252258300781225
1020,274.901816,-3.57774543762207,1.14057636260986,-2.38353252410889,0.9847141771900408,0.07563982082872958,0.11661883519620306
1021,274.910149,-2.71075487136841,1.29625976085663,-2.9808566570282,0.9895316921934785,0.08251878680015103,0.11384208591616835
1022,274.918482,-2.18572664260864,1.01379871368408,-3.51994681358337,0.9979525390936407,0.08258876143669591,0.12239068138356123
1023,274.926815,-1.77114772796631,0.63090425729752,-3.77425765991211,1.0076299978762255,0.08202462780232346,0.13091233311867245
1024,274.93514799999997,-1.59120726585388,-0.30825445055962,-3.60210347175598,1.0153245925903316,0.07475893108212245,0.13923876139582447
1025,274.94348099999996,-1.37148857116699,-1.37726449966431,-3.42126750946045,1.023437928180305,0.06959087386423264,0.14298747996894692
1026,274.951814,-0.88335806131363,-2.32178926467896,-3.06428170204163,1.0291445011995275,0.0685499395642959,0.142493442613251
1027,274.960147,-0.03767854347825,-3.51856374740601,-2.89033579826355,1.0304512296404154,0.0646886716083602,0.13642401111369182
1028,274.96848,0.83355122804642,-4.93108606338501,-2.89120697975159,1.0291315584766623,0.06750058154670509,0.13231670369907345
1029,274.976813,1.76567888259888,-6.31312704086304,-2.76034355163574,1.0228891761935488,0.06348838003314286,0.13375400280465918
1030,274.985146,2.33370041847229,-7.29968643188477,-2.4065089225769,1.0121152838882133,0.06028435059956122,0.1354214001675041
1031,274.993479,2.90131187438965,-7.95205450057983,-1.67791163921356,1.003438210000797,0.05487738823404081,0.13503680423814385
1032,275.001812,3.11291074752808,-8.3062219619751,-1.0957258939743,0.992930373366998,0.05582232864535611,0.13298942118274895
1033,275.01014499999997,3.40537452697754,-8.30558300018311,-0.6299821138382,0.9778777920469949,0.05433383644843571,0.12813037755537957
1034,275.01847799999996,3.24702668190002,-7.8848934173584,-0.25593742728233,0.9679427438852733,0.05614787340164183,0.12580815626650407
1035,275.026811,3.29495191574097,-7.14133977890015,-0.05647939443588,0.9615004792505377,0.052361512670711215,0.11522852644628366
1036,275.035144,2.87039494514465,-6.41811990737915,0.04189207777381,0.958642570339903,0.04573093081007244,0.11218973568507652
1037,275.043477,2.43656659126282,-5.38520050048828,0.44257554411888,0.9505378956697428,0.03933985318456326,0.10892470272219897
1038,275.05181,1.76155507564545,-3.87296271324158,1.09486770629883,0.9507110167522815,0.034851827183547957,0.11012948289209488
1039,275.060143,1.49457788467407,-2.73935294151306,1.62815618515015,0.9515611492857642,0.033613844793670404,0.1079888368139459
1040,275.068476,1.33351564407349,-1.26773822307587,2.20373368263245,0.9560107211677397,0.029866804881971423,0.10465064827276734
1041,275.07680899999997,1.60956001281738,-0.19844627380371,2.72354865074158,0.9645020231908683,0.031436274246293874,0.09587143756905407
1042,275.08514199999996,1.87891948223114,0.32261130213737,2.95266842842102,0.9709668646053388,0.033425299488768365,0.0887063693027102
1043,275.093475,2.09815144538879,0.72647088766098,3.08027791976929,0.9776527054455815,0.03417870219872959,0.08616507661585918
1044,275.101808,2.05289149284363,0.90146738290787,3.10630226135254,0.9842835640420713,0.03436096468750306,0.08704447624634694
1045,275.110141,2.09626913070679,1.22847151756287,3.19022750854492,0.9861225011397377,0.0377924344977551,0.08513150166492041
1046,275.118474,2.21213483810425,1.19170224666595,3.19190502166748,0.9850249971662245,0.037522212583191834,0.08115674768175407
1047,275.126807,2.44806742668152,1.24480044841766,2.920982837677,0.9881823403494693,0.03886457912775918,0.07289916276931734
1048,275.13514,2.9533851146698,1.30855441093445,2.85133838653564,0.9908428970648315,0.04562480717289183,0.06159954533285
1049,275.143473,3.69409799575806,1.42174386978149,2.57478141784668,0.9951852292430642,0.05960243088858469,0.058349395284846936
1050,275.15180599999997,4.98223781585693,0.89724111557007,2.23400950431824,0.9965628993754478,0.06899786238767652,0.05739536212415102
1051,275.160139,5.74533700942993,0.43080586194992,2.16328859329224,0.9922486908581795,0.07626242783604796,0.05833367912136734
1052,275.168472,6.76076173782349,0.14894676208496,1.83862805366516,0.9866544178553989,0.08388591055967347,0.06167296852384285
1053,275.176805,7.44899225234985,0.13841935992241,1.74032115936279,0.9818810832743745,0.08766086125860408,0.060366021127117336
1054,275.185138,8.26503562927246,0.34507501125336,1.55300402641296,0.9749412536621092,0.09376018023004387,0.05713525475287959
1055,275.193471,9.21158409118652,0.7722692489624,1.50741076469421,0.9750455739546795,0.0943642124837755,0.055733681941519383
1056,275.201804,10.11522960662842,1.0481858253479,1.3853588104248,0.9770588972130602,0.09595881919471631,0.0550451631448704
1057,275.210137,10.99372100830078,1.22056949138641,0.94960951805115,0.9786008328807602,0.10012124265943265,0.05223515690589387
1058,275.21846999999997,11.96411609649658,1.2542781829834,0.65202325582504,0.977749337955397,0.10506711444076224,0.049286804028919384
1059,275.22680299999996,12.85282897949219,1.06188952922821,0.11550740897655,0.972266489145707,0.10331114944146633,0.05254125108524285
1060,275.235136,13.68475341796875,1.29492783546448,-0.36379903554916,0.9558492777298907,0.10105360527427856,0.058564069319744894
1061,275.243469,14.29603481292725,2.17052483558655,-1.02328872680664,0.9423173203760264,0.10144832182903672,0.06569471894478264
1062,275.251802,14.64946174621582,3.42790246009827,-2.07137227058411,0.9277616228376112,0.10285445622035408,0.07440503154482143
1063,275.260135,14.80773258209229,4.55474948883057,-3.19634962081909,0.9197175746061367,0.10677999379683469,0.0847618068967551
1064,275.268468,15.34114933013916,6.32702445983887,-4.35124444961548,0.9068950341672316,0.10948970609781733,0.09927915067088877
1065,275.276801,16.45163154602051,8.52949047088623,-5.43636655807495,0.8984852810295265,0.10440349578857448,0.11230748526904082
1066,275.28513399999997,17.86787033081055,10.21841812133789,-6.98615646362305,0.8970546722412113,0.10231846449326529,0.12327725789984897
1067,275.29346699999996,19.04651069641113,11.05167675018311,-9.07136344909668,0.8979676694286112,0.0895144562332,0.12526254264675815
1068,275.3018,19.88661003112793,11.38379287719727,-11.69536399841309,0.9029631711998766,0.08390420553635611,0.12776779885194695
1069,275.310133,20.56853675842285,11.07191276550293,-14.72634887695312,0.9062338848503264,0.0700226182840306,0.13435188604860918
1070,275.318466,20.8372859954834,10.68309116363525,-18.13274002075195,0.912156980864856,0.05711262323418469,0.14776593568373672
1071,275.326799,20.73357200622559,9.84399318695068,-21.6881275177002,0.9211810754269969,0.048027324433229594,0.16440440197380202
1072,275.335132,20.08959770202637,8.70133113861084,-25.16879081726074,0.923356328691755,0.03423111171138571,0.16670093244435813
1073,275.343465,19.54163360595703,7.60501623153687,-28.61905860900879,0.9183729911337091,0.021123136488759183,0.15776479730800713
1074,275.351798,19.03497314453125,7.56407165527344,-31.78361320495605,0.9155273437499999,0.017052592367541836,0.14244493173093165
1075,275.36013099999997,19.08671760559082,8.78712940216064,-33.93691253662109,0.9101434629790632,0.011607885968928571,0.13822842617424183
1076,275.36846399999996,19.0442008972168,11.6243724822998,-35.22659683227539,0.9141101642530794,0.01061629503965408,0.12621933100174898
1077,275.376797,18.84715270996094,15.00440788269043,-35.87886810302734,0.9261669431413917,0.01443229159530306,0.11936459006095407
1078,275.38513,17.75567436218262,18.9138126373291,-35.41678619384766,0.9379991219968213,0.026506331502174487,0.1176661252975459
1079,275.393463,16.60282897949219,24.90114974975586,-33.38362503051758,0.9663021321199378,0.03320452510094184,0.09656021181417958
1080,275.401796,15.29184055328369,29.4056339263916,-31.16010475158691,1.0167982140365908,0.0513427172388347,0.07990742216304897
1081,275.410129,14.96449184417725,32.94617080688477,-28.32637405395508,1.0584764091335999,0.06178417984320204,0.04415260893957959
1082,275.418462,15.2393798828125,30.05036354064941,-26.39015769958496,1.077245206249003,0.0926964927692806,0.01367885391322959
1083,275.42679499999997,16.24639892578125,25.12995147705078,-24.65560150146484,1.020224629616251,0.1239600838447102,0.00016309910130714284
1084,275.43512799999996,16.89920425415039,27.31492614746094,-22.46806716918945,0.9493150516432162,0.14563732001246224,-0.004078066926829591
1085,275.443461,17.56720542907715,33.77698135375977,-20.47764205932617,0.9843602472422069,0.18293233550324692,-0.020403008984060205
1086,275.451794,19.55879020690918,32.73365783691406,-19.26703071594238,0.9859452928815571,0.20362536517941224,-0.05323012264407449
1087,275.460127,21.08590507507324,34.78079605102539,-17.66861343383789,0.9225325681725326,0.21105666549838367,-0.05970225650437041
1088,275.46846,22.70142555236816,45.10267639160156,-14.6809606552124,0.9398107139431703,0.220544459868451,-0.07128738018931224
1089,275.476793,24.58478546142578,51.65951538085938,-11.74198627471924,1.0090444525893856,0.23145921376286732,-0.06911740619309081
1090,275.485126,26.2775707244873,53.06082916259766,-9.97235679626465,1.1138624074507735,0.2500232871697877,-0.07706990655587652
1091,275.493459,29.57261848449707,44.51240158081055,-9.34691429138184,1.1470562097977621,0.22777990419037444,-0.07733820044264489
1092,275.50179199999997,32.28412246704102,41.39416885375977,-6.3157434463501,1.1459554944719592,0.18275347291206834,-0.04674681595393571
1093,275.51012499999996,33.72651290893555,40.90803146362305,-1.69259285926819,1.1959327970232285,0.14346425630608367,-0.02646242477455918
1094,275.518458,35.09420394897461,34.44358444213867,2.68636250495911,1.21669204867616,0.10338078956214795,-0.02390645140287857
1095,275.526791,34.53195571899414,27.06497001647949,5.29089832305908,1.2048184141820795,0.0663557831121949,-0.01512158890159796
1096,275.535124,32.64374542236328,19.91787147521973,6.60315370559692,1.1663231557729297,0.032558702692693876,-0.010454961839987753
1097,275.543457,29.5477294921875,14.81144618988037,7.44940757751465,1.1214110316062458,0.007312254486035713,-0.021084928695036732
1098,275.55179,26.27542304992676,11.16807079315186,8.32372283935547,1.0856350100770285,-0.01036931893655204,-0.04733796022376224
1099,275.560123,22.72507667541504,8.35160350799561,8.72594261169434,1.0656834621818694,-0.02610260734752755,-0.06730015180548876
1100,275.56845599999997,19.72075271606445,4.93394374847412,8.85326957702637,1.0452184871751438,-0.03711423703602347,-0.08646926101373162
1101,275.57678899999996,16.4914608001709,1.61864078044891,8.85839176177979,1.0184559530141397,-0.04070937937619694,-0.08591533923635714
1102,275.585122,13.96236038208008,-0.77363967895508,8.32592105865479,0.9956959315708703,-0.03143984444287347,-0.09183201254630612
1103,275.593455,11.22870445251465,-3.56346535682678,7.06815910339355,0.9528542538078457,-0.029072278008169385,-0.08993766745742449
1104,275.601788,8.38204193115234,-2.46981430053711,5.87051439285278,0.8988892302221183,-0.03049349906493163,-0.08421243453512346
1105,275.610121,5.45694589614868,2.1961133480072,4.71753978729248,0.8905286205058193,-0.028320867188122448,-0.09125460167320408
1106,275.618454,3.00389671325684,4.45654392242432,3.12318229675293,0.9327098301478796,-0.021237145577158164,-0.11132551699268571
1107,275.626787,1.17053210735321,1.90464890003204,0.74254381656647,0.9290742874145509,-0.022386961749621428,-0.11113598638651326
1108,275.63512,-0.72093820571899,2.72089791297913,-1.13337862491608,0.921745105665557,-0.02190865880372551,-0.10554160390581428
1109,275.64345299999997,-2.41526865959167,3.6880145072937,-2.84753441810608,0.9322342580678509,-0.015309989756467345,-0.10325982862589285
1110,275.651786,-3.81139802932739,3.27460050582886,-4.39307165145874,0.9369666235787529,-0.014270215618367346,-0.10783571369793979
1111,275.660119,-5.43897771835327,2.45543193817139,-6.06025123596191,0.9477062614596621,-0.010412003160739794,-0.10900513250000611
1112,275.668452,-6.62973213195801,1.31144869327545,-7.33153629302979,0.9578257190937898,0.00682196446827449,-0.11353352848364386
1113,275.676785,-7.60439395904541,-0.11580196022987,-8.03957939147949,0.970240904360401,0.011470535275887754,-0.11819107191903265
1114,275.685118,-8.55603790283203,-1.68905377388,-8.59328079223633,0.9814636074766816,0.019053643455311225,-0.12929653634830407
1115,275.693451,-9.27394104003906,-4.06178998947144,-9.05517101287842,0.990663255964007,0.026479381687786734,-0.14168030145216937
1116,275.701784,-9.72270393371582,-6.97756195068359,-9.60398292541504,0.9900242941720142,0.034694893627751015,-0.14735542998021936
1117,275.71011699999997,-10.2775354385376,-9.25822830200195,-10.30606937408447,0.9821847993500377,0.03667967051875816,-0.1430392751888357
1118,275.71844999999996,-10.81046390533447,-10.1740140914917,-10.67378807067871,0.9783136601350745,0.03522664004442653,-0.1431525361781214
1119,275.726783,-11.08758544921875,-10.86729049682617,-11.28192043304443,0.9772728900520172,0.04160993561452755,-0.15007622387944386
1120,275.735116,-11.03069686889648,-11.50790214538574,-11.64139080047607,0.9752322216423194,0.045620151320282645,-0.15516627808006428
1121,275.743449,-10.51943588256836,-12.01506423950195,-11.85977840423584,0.9784315070327448,0.054528980839009186,-0.16704734490842243
1122,275.751782,-9.36408138275146,-13.6548376083374,-12.58968353271484,0.9703680933738245,0.05789965391159081,-0.17347826033222447
1123,275.760115,-8.03890323638916,-13.90416812896729,-13.34115409851074,0.9600071031220101,0.06377465262705,-0.17664005561750715
