,timestamp,GyrY,GyrX,GyrZ,AccY,AccX,AccZ
163,403.004686,1.18262195587158,0.73920112848282,-0.12384481728077,0.4778982181938326,-0.1416700835130653,0.8216142654418949
164,403.013019,1.13269996643066,0.66814738512039,-0.15063731372356,0.4791287986599673,-0.14271745876390102,0.8217667560188142
165,403.021352,1.13106071949005,0.69493985176086,-0.13432104885578,0.4789237586819397,-0.14444217389943673,0.8179830045116194
166,403.029685,1.1529096364975,0.6671227812767,-0.11052542179823,0.47669464228104586,-0.14243134430476634,0.8203559019127674
167,403.03801799999997,1.14535343647003,0.5921756029129,-0.08665296435356,0.4782777416462795,-0.14350719597874897,0.8200879972808215
168,403.04635099999996,1.14811956882477,0.61615043878555,-0.10378888249397,0.4769690669312765,-0.1441049697447796,0.8222469991567183
169,403.054684,1.09110248088837,0.53062456846237,-0.0717710852623,0.4776084666349449,-0.1413358352622204,0.8189830974656704
170,403.063017,1.03756856918335,0.52757638692856,-0.16282966732979,0.477644959274603,-0.14196203679454591,0.8217266627720428
171,403.07135,1.01625752449036,0.54970705509186,-0.12804555892944,0.47742527358386017,-0.1409562631529204,0.8228126837282764
172,403.079683,1.00993072986603,0.42701488733292,-0.0666738525033,0.47915799277169385,-0.14053077113871631,0.8168386926456377
173,403.088016,1.13011276721954,0.44732695817947,-0.14638535678387,0.47856681200922746,-0.1409343675691255,0.8167583115246825
174,403.096349,1.05127227306366,0.48636311292648,-0.1827831864357,0.4792886364216704,-0.14203575192665613,0.8206274071518255
175,403.10468199999997,1.05677926540375,0.59614568948746,-0.08342555910349,0.47804856786922545,-0.14093801683309082,0.819209254517847
176,403.11301499999996,0.91608035564423,0.52639812231064,-0.16493006050587,0.4781288516764734,-0.1413620977985612,0.8216347986338091
177,403.12134799999995,0.9633641242981,0.50331968069077,-0.16521181166172,0.4772267536241183,-0.14353566023768163,0.8181451291454082
178,403.129681,1.01372182369232,0.45624080300331,-0.09075124561787,0.4789558235479857,-0.1418766075251051,0.8216579592957785
179,403.138014,0.95416867733002,0.40068346261978,-0.07884062081575,0.47982439702870916,-0.14361448433934387,0.8226740116975745
180,403.146347,0.87089675664902,0.27192071080208,-0.09564355015755,0.4805031601263551,-0.14271599905831428,0.8171050402582908
181,403.15468,0.83726531267166,0.24161906540394,-0.14825518429279,0.4796134695714836,-0.14245982072791225,0.8216595163150714
182,403.163013,0.89177232980728,0.2222803235054,-0.03073708154261,0.47876898123293465,-0.14171610073167448,0.8182802005689969
183,403.17134599999997,0.78206658363342,0.16557040810585,-0.12812240421772,0.4770748955862867,-0.14015411844058878,0.8184531270241254
184,403.17967899999996,0.82327991724014,0.16113914549351,-0.07471672445536,0.47737418388833774,-0.14254012886358775,0.8196691590912489
185,403.18801199999996,0.96134060621262,0.24459032714367,-0.15939739346504,0.4767304050679112,-0.14047453598100304,0.8193960968328979
186,403.196345,1.00316870212555,0.25606548786163,-0.14236392080784,0.47809746800636727,-0.1423372297870867,0.8197356243522795
187,403.204678,0.95601284503937,0.21395568549633,-0.13055574893951,0.4801666979887051,-0.14182481230521732,0.8190056742454062
188,403.213011,1.03856754302979,0.33006501197815,-0.16375179588795,0.4771829624565275,-0.1426838855354153,0.8201609825601388
189,403.221344,0.93465054035187,0.2391344755888,-0.09226246923208,0.47700191030696937,-0.14148399537923365,0.8158161688824092
190,403.229677,0.96674531698227,0.21490344405174,-0.11728759855032,0.47670559007294283,-0.14096356168085203,0.8190559854312817
191,403.23801,0.96633541584015,0.24074819684029,-0.11016681790352,0.4773917003553744,-0.14180508195137448,0.8208681612598652
192,403.24634299999997,0.95465534925461,0.11754371225834,-0.03739678114653,0.47896896089826324,-0.14235908887824184,0.8184998376028878
193,403.25467599999996,0.84669137001038,0.3719699382782,-0.11452125012875,0.4767734663827081,-0.140926339188401,0.8163123714680571
194,403.26300899999995,0.84569239616394,0.36172419786453,-0.05471200495958,0.47780041791954786,-0.14388815480835612,0.8194558474482325
195,403.271342,0.9474064707756,0.2519159913063,-0.09618145227432,0.47670631992573675,-0.14329406679893059,0.8208500609105949
196,403.279675,0.84546190500259,0.26213610172272,-0.11365038901567,0.4781339606460255,-0.14200071899258365,0.8185340920273142
197,403.288008,0.89238721132278,0.17100064456463,-0.00453371973708,0.4788003649030408,-0.14178102113762653,0.818113696818449
198,403.296341,0.90242785215378,0.30775499343872,-0.10419870167971,0.47930104391915407,-0.1400665604338357,0.819983774301957
199,403.304674,0.92425119876862,0.24633210897446,-0.08076167851686,0.4766377137631786,-0.14370423190447754,0.8207127512717735
200,403.31300699999997,0.97476243972778,0.24592226743698,-0.11098647117615,0.47908135822841125,-0.14051100429223468,0.824427799302704
201,403.32133999999996,0.79889518022537,0.20424790680408,-0.08685787767172,0.478708403451102,-0.1432502756313398,0.8188596063730662
202,403.32967299999996,0.90655183792114,0.27909269928932,-0.14740991592407,0.4763946727830541,-0.14296054840087855,0.8208245647196867
203,403.338006,0.92647963762283,0.0948751270771,-0.12397290021181,0.47899304604043774,-0.14211241079836426,0.8221522156073122
204,403.346339,1.00555086135864,0.17310097813606,-0.09274913370609,0.47727273435008777,-0.14185839769791633,0.8194880582848377
205,403.354672,0.90142893791199,0.28086006641388,-0.09625829011202,0.47635380102663666,-0.14312984992046734,0.8221827721109193
206,403.363005,0.92358523607254,0.21469850838184,-0.13127294182777,0.4768311247533683,-0.14216713759363878,0.8166327768442582
207,403.371338,0.98585337400436,0.21766975522041,-0.104557313025,0.47829379840772956,-0.14227442595423467,0.819454485056352
208,403.379671,0.81011420488358,0.23314075171947,0.06609753519297,0.4771004404340469,-0.13990230706273266,0.8175414922286051
209,403.38800399999997,0.95255494117737,0.08380977064371,-0.03388763219118,0.477741299843302,-0.14202190905201223,0.8209617770448021
210,403.39633699999996,0.9874415397644,0.27437967061996,-0.16836236417294,0.4773099568425388,-0.1423576291726561,0.8207435024027917
211,403.40467,0.92471224069595,0.1983822286129,-0.12789186835289,0.47805294698598466,-0.14185401858115715,0.8205252277607816
212,403.413003,0.96646356582642,0.24794581532478,-0.16838799417019,0.47974776248542655,-0.14214672604385714,0.8201246845478918
213,403.421336,1.00603747367859,0.30519357323647,-0.22740317881107,0.4792098123200082,-0.14170438659434387,0.8221806312093929
214,403.429669,1.00188791751862,0.30795994400978,-0.22471368312836,0.47625892016352445,-0.14016871549645202,0.8190778810150765
215,403.438002,1.02056062221527,0.22740317881107,-0.09008526057005,0.4768318546061612,-0.1407854411066796,0.8212476847123122
216,403.446335,1.02363443374634,0.19231167435646,-0.10068956017494,0.47700701927652145,-0.14129492701316324,0.8169532308773122
217,403.45466799999997,1.01820433139801,0.25352966785431,-0.07343600690365,0.47783691055920613,-0.14484141554151223,0.8185976378771724
218,403.46300099999996,0.96239084005356,0.21723431348801,-0.13844493031502,0.47742892284782545,-0.1417853759259592,0.8181106800935704
219,403.47133399999996,0.95183777809143,0.20496509969234,-0.02497387863696,0.4769902326622786,-0.1445947252974214,0.8225476985075041
220,403.479667,0.89131128787994,0.22850456833839,-0.0926466807723,0.47722602377132445,-0.14194743973868265,0.8214230440100846
221,403.488,1.01118588447571,0.2735344171524,-0.01741768047214,0.4790003445683694,-0.14242258607124794,0.8188910387000254
222,403.496333,1.01126277446747,0.14523270726204,-0.19108219444752,0.4759027520004582,-0.1430422554210745,0.8204077701179346
223,403.504666,1.01817870140076,0.20271104574203,-0.09922954440117,0.4770909523477357,-0.1397738529711357,0.8207070097631335
224,403.512999,1.01958739757538,0.29223278164864,-0.1778908520937,0.47757416355366633,-0.14112854490474797,0.8199283054896764
225,403.521332,1.12294089794159,0.3003269135952,-0.07761112600565,0.4760735375540601,-0.1417729684284755,0.8178114404483713
226,403.52966499999997,1.08154821395874,0.36487478017807,-0.04549087956548,0.4764450326257826,-0.1408584263859959,0.8205069327840999
227,403.53799799999996,1.20047509670258,0.31426104903221,-0.14940784871578,0.4770639477943887,-0.14276710091805,0.8211609782004846
228,403.546331,1.13500511646271,0.27781197428703,-0.18580563366413,0.4767377035958428,-0.14247733719494898,0.8188983372279571
229,403.554664,1.21881496906281,0.32158669829369,-0.12568904459476,0.47665887949418057,-0.14277002032922245,0.8167334965297152
230,403.562997,1.20677614212036,0.38459771871567,-0.11213911324739,0.4785719209787796,-0.1425481329158857,0.8184881599581969
231,403.57133,1.26955676078796,0.35383501648903,-0.19200432300568,0.47727784331963974,-0.14101100211240816,0.8184888411541378
232,403.579663,1.18072664737701,0.35754916071892,-0.19894576072693,0.4778274224728959,-0.14250941422520813,0.8198674844235786
233,403.587996,1.36266446113586,0.32166355848312,-0.15960228443146,0.47737418388833774,-0.14181897348287142,0.8167269765114296
234,403.59632899999997,1.25377833843231,0.29448682069778,-0.14577059447765,0.47873102888769076,-0.14175182702589997,0.819898235554598
235,403.60466199999996,1.28853690624237,0.3260692358017,-0.14951027929783,0.47780479703630707,-0.14265034879956937,0.8192604415270744
236,403.61299499999996,1.38697242736816,0.32952710986137,-0.21206024289131,0.47726032685260406,-0.1419379516523714,0.8188201943222356
237,403.621328,1.2967334985733,0.3485072851181,-0.15301944315434,0.47678149476343257,-0.14423485921353674,0.8179982827634223
238,403.629661,1.3983451128006,0.36723127961159,-0.18283440172672,0.4762640291330765,-0.14299043587275917,0.8201515431306796
239,403.637994,1.35987257957458,0.42099559307098,-0.13711300492287,0.47742892284782545,-0.14220873920285,0.8186099967178031
240,403.646327,1.31458652019501,0.32950150966644,-0.19046744704247,0.47698877295669284,-0.1425919240834765,0.817013078806352
241,403.65466,1.30413591861725,0.403834015131,-0.2505584359169,0.4760034716859153,-0.14198542857656632,0.8209442605777661
242,403.662993,1.49647343158722,0.36331233382225,-0.20178897678852,0.47733988080705914,-0.14347362275026324,0.817258309344856
243,403.67132599999997,1.40520977973938,0.36848640441895,-0.23168076574802,0.4782288415091377,-0.14336998365363263,0.8228776892837214
244,403.67965899999996,1.39311981201172,0.37168818712234,-0.22338174283504,0.47849528643549694,-0.14217589582715712,0.8203858745341398
245,403.687992,1.50566864013672,0.34051561355591,-0.32783654332161,0.4785069640801877,-0.14129127774919795,0.8181086365057498
246,403.696325,1.43535780906677,0.35544875264168,-0.22458563745022,0.47615090195013565,-0.14248901483963977,0.8166802659326673
247,403.704658,1.45428657531738,0.31152030825615,-0.22909370064735,0.4768420725452653,-0.14277585915156735,0.8141650472368509
248,403.712991,1.56322395801544,0.31323644518852,-0.17904350161552,0.47650342084923564,-0.14260874719035918,0.8174473898751398
249,403.721324,1.40108585357666,0.38651877641678,-0.25970271229744,0.4768340441645408,-0.13872354614491325,0.8207829144536234
250,403.729657,1.40948736667633,0.21280308067799,-0.22591757774353,0.4770617582360091,-0.14368603424150103,0.8191816174254122
251,403.73798999999997,1.49457776546478,0.32576179504395,-0.24246430397034,0.47790478686897137,-0.14304667103047244,0.8206712956331214
252,403.74632299999996,1.51711845397949,0.19000640511513,-0.13506387174129,0.4761771766506897,-0.1441677370849918,0.8202574204425418
253,403.75465599999995,1.46025478839874,0.29697144031525,-0.21521079540253,0.47826314459041636,-0.1443013123103551,0.8186859014082928
254,403.762989,1.42623889446259,0.31233996152878,-0.16936132311821,0.47534071669286626,-0.14178981586378467,0.8205267847800745
255,403.771322,1.27009463310242,0.34750831127167,-0.2378281801939,0.4780310514021898,-0.14550780763431428,0.8209215864843254
256,403.779655,1.29980719089508,0.39102694392204,-0.15491490066051,0.47757854267042543,-0.14178758981276532,0.819780777911751
257,403.787988,1.18362104892731,0.36069968342781,-0.15068854391575,0.47514365643871115,-0.14388381218423674,0.8217682157243998
258,403.796321,1.07422256469727,0.18475548923016,-0.21626099944115,0.47626621869145613,-0.14353930950164795,0.8219433803947602
259,403.80465399999997,1.1406147480011,0.31272423267365,-0.1364214271307,0.4762392141381092,-0.14489324725404082,0.8179582868303571
260,403.81298699999996,1.03101134300232,0.42314714193344,0.00119106192142,0.47895217428402037,-0.14289120022131427,0.8198589208174725
261,403.82131999999996,1.12637329101562,0.36533582210541,-0.14072459936142,0.4773902406497877,-0.14226931698468265,0.8183165958949499
262,403.829653,1.08872020244598,0.30575713515282,-0.16170267760754,0.47658881362603667,-0.14525015743411326,0.8183238944228816
263,403.837986,0.96223717927933,0.28816017508507,-0.17917157709599,0.4772522984718785,-0.14320141198683775,0.8215960677789184
264,403.846319,1.08987283706665,0.29364156723022,-0.14879310131073,0.4772654358221561,-0.14363856948151837,0.8179758032973927
265,403.854652,1.11835587024689,0.32437863945961,-0.09600215405226,0.4762910336864234,-0.14295975772701938,0.8167844889115315
266,403.862985,1.02880847454071,0.31382557749748,-0.08322064578533,0.4771727445174235,-0.14441079022933062,0.8166423135874223
267,403.871318,0.96274942159653,0.25437495112419,-0.14144179224968,0.4762333753157632,-0.14229489832508369,0.8177467268340437
268,403.87965099999997,1.05585718154907,0.32320040464401,-0.14853692054749,0.4772508387662928,-0.14429985260476835,0.8197282285106429
269,403.88798399999996,1.0560108423233,0.19781872630119,-0.07942973822355,0.4758428554145652,-0.14490273534035203,0.819886557909907
270,403.89631699999995,1.06546247005463,0.25606548786163,-0.24569173157215,0.47566039221627343,-0.14306708258025508,0.8177531495386243
271,403.90465,1.0859797000885,0.28700751066208,-0.10658083856106,0.4764793357070612,-0.14424872641660713,0.8195916000677612
272,403.912983,1.01933121681213,0.34054124355316,-0.11129384487867,0.47786829422931326,-0.1446910658661204,0.816799183281101
273,403.921316,0.96669399738312,0.35324591398239,-0.09787199646235,0.4774989887159694,-0.1432364084282704,0.8166313171386714
274,403.929649,1.01092982292175,0.38137033581734,-0.07674024254084,0.4756764489777235,-0.14379185073229692,0.8205916930218131
275,403.937982,0.9928206205368,0.41046810150146,-0.05514744669199,0.4757618417545245,-0.14440349170139896,0.8195516041346959
276,403.94631499999997,0.99632960557938,0.45247542858124,-0.15032996237278,0.48030682972499283,-0.14454289358489386,0.8168473535654499
277,403.95464799999996,0.98567408323288,0.37850153446198,-0.07195039093494,0.47624943207721326,-0.14474726453119388,0.8201084331590305
278,403.96298099999996,0.96623295545578,0.40263012051582,-0.02648511715233,0.475250944799306,-0.14463410085561326,0.8214513622984592
279,403.971314,1.03144669532776,0.37325063347816,-0.15209732949734,0.47783691055920613,-0.14363273065917345,0.8208573594385266
280,403.979647,1.00076103210449,0.36999762058258,-0.04631054028869,0.4766647183165254,-0.14327509062630817,0.821222967031051
281,403.98798,1.08052361011505,0.44689154624939,-0.08532100915909,0.4759129699395622,-0.14197517414482244,0.8170743864409775
282,403.996313,1.08503174781799,0.39589360356331,-0.16321390867233,0.4761523616557214,-0.14322330757063265,0.8185568634344601
283,404.004646,1.07916605472565,0.37911623716354,-0.03885678946972,0.47655232098637756,-0.14429620334080304,0.8183772223336357
284,404.012979,1.06651282310486,0.44386905431747,-0.04843651875854,0.47639175337188056,-0.1437984194074357,0.8191742215837754
285,404.02131199999997,1.03252267837524,0.49097368121147,-0.08521857112646,0.4786113330296112,-0.1442078789886163,0.817376545497349
286,404.02964499999996,1.07826960086823,0.39312729239464,-0.05281655117869,0.47563484736851325,-0.1441363534148857,0.8218448989245356
287,404.037978,0.95683258771896,0.52250480651855,0.03223551437259,0.4765844345092775,-0.14403924650075509,0.8191193366537285
288,404.046311,1.11397576332092,0.49281790852547,-0.07292372733355,0.4783062059052133,-0.1435203333290255,0.8185428502608316
289,404.054644,1.04015564918518,0.43777287006378,-0.05238111317158,0.47781939409217034,-0.1448779203453847,0.8214456207898194
290,404.062977,1.09053885936737,0.35491082072258,-0.07597181200981,0.4775624859089755,-0.1456289631979806,0.8220711532904174
291,404.07131,1.08815681934357,0.39461290836334,-0.09666812419891,0.476175716945103,-0.14247587748936222,0.8154832100381653
292,404.079643,0.92161291837692,0.50042527914047,-0.00873445346951,0.47786026584858776,-0.14504797604619285,0.8223389606086571
293,404.08797599999997,0.95024967193604,0.41231232881546,-0.08191432058811,0.47681214858074594,-0.14275980239011837,0.8192486665686786
294,404.09630899999996,0.87105047702789,0.39238440990448,-0.12825046479702,0.47716836540066426,-0.14384731954457855,0.8181378306174765
295,404.10464199999996,0.83693224191666,0.4141309261322,-0.02090121433139,0.4755297972231499,-0.14370279652731732,0.822360856192453
296,404.112975,0.90142893791199,0.4249401986599,-0.09656566381454,0.47483711826558056,-0.1437130509590612,0.8177803000625294
297,404.121308,0.91116237640381,0.35729295015335,0.026830913499,0.4793112618582592,-0.14304372729087345,0.8183013176431458
298,404.129641,0.97335374355316,0.36413192749023,0.04860300943255,0.47553850679981424,-0.14584282223059183,0.8198669005413448
299,404.137974,0.77681565284729,0.47230091691017,-0.09835866093636,0.4802805550244388,-0.14219852126374488,0.8196982558892694
300,404.146307,0.79418212175369,0.41436144709587,0.02588318474591,0.47699242222065813,-0.1451428569093041,0.8196296497267122
301,404.15464,0.70945024490356,0.42926892638206,-0.05704290047288,0.47795587656449284,-0.14198539208392755,0.8189252931244521
302,404.16297299999997,0.57981663942337,0.32496777176857,-0.06787771731615,0.4771968296595979,-0.14341158526284387,0.8160897663661407
303,404.17130599999996,0.44278046488762,0.3574466407299,0.04076505452394,0.4766917228698735,-0.1447093365143755,0.8190137512829837
304,404.179639,0.61682915687561,0.25855007767677,-0.04121330007911,0.47825146694572646,-0.14264375579600408,0.8160496731193693
305,404.187972,0.55935084819794,0.31915336847305,0.03566782176495,0.4767092393369091,-0.14316415300174593,0.8175765251626775
306,404.196305,0.55527824163437,0.253632158041,0.09965217858553,0.4763260666204959,-0.14372981324487755,0.8194179924166928
307,404.204638,0.44221696257591,0.24115799367428,0.13517911732197,0.47875584388265807,-0.1437386079710357,0.816756949132802
308,404.212971,0.39775064587593,0.24733105301857,0.03781941533089,0.47691067870782344,-0.14268608725800813,0.8208661176720449
309,404.221304,0.4356597661972,0.20955005288124,0.14834485948086,0.4760961629906479,-0.14427352924736223,0.8183573703376612
310,404.22963699999997,0.45666337013245,0.18009366095066,0.11217753589153,0.4778529673206561,-0.1439341720269653,0.8208150279765224
311,404.23796999999996,0.50676482915878,0.18462739884853,0.16235582530499,0.4767325946262908,-0.1411518637014898,0.819171302172602
312,404.24630299999995,0.31837210059166,0.19874083995819,0.05008863285184,0.47820913548372246,-0.14177664202086734,0.8157634735107417
313,404.254636,0.42041921615601,0.20424789190292,0.00605776626617,0.4782040265141704,-0.14274009636470203,0.8200865375752345
314,404.262969,0.52069896459579,0.21902732551098,-0.01659802347422,0.4761231675439948,-0.1416897895384806,0.8232739506935591
315,404.271302,0.53683590888977,0.28011727333069,0.08059519529343,0.4775471590003183,-0.14104676489927345,0.8207164491925918
316,404.279635,0.57433515787125,0.28869804739952,-0.02866232953966,0.47669902139780507,-0.1418335340460949,0.8173881258283345
317,404.287968,0.59267497062683,0.19082605838776,0.03351622819901,0.47654283290006627,-0.14304302176650713,0.8190575424505734
318,404.29630099999997,0.60860699415207,0.23508742451668,0.04163593798876,0.4770245357435581,-0.14153287118795,0.8212696776098132
319,404.30463399999996,0.67553704977036,0.19866400957108,0.04107242450118,0.47751285591903975,-0.14413562356209286,0.818691059034698
320,404.31296699999996,0.70945024490356,0.32094633579254,0.04506824165583,0.4782733625295214,-0.14193943568638367,0.8191392859634091
321,404.3213,0.82635360956192,0.19907383620739,-0.03340096399188,0.4782346803314836,-0.1413584242061694,0.818183081490653
322,404.329633,0.75909066200256,0.29453808069229,-0.03870311006904,0.47721872524339287,-0.1421926824414,0.8202559607369561
323,404.337966,0.90214610099792,0.17082132399082,-0.07889185100794,0.47703840294662747,-0.140248999303701,0.8177210360157244
324,404.346299,0.85816645622253,0.2919510602951,-0.007018300239,0.47746687519307035,-0.1438721345395459,0.8192217106721836
325,404.354632,0.9364949464798,0.20068754255772,-0.02348825521767,0.4757764388103878,-0.14059788110304897,0.8189990569134141
326,404.362965,0.89776593446732,0.22850456833839,-0.05074179545045,0.47519036701747347,-0.14327804653012038,0.8185291290283204
327,404.37129799999997,0.99807143211365,0.27371367812157,-0.04984529688954,0.4766763959612163,-0.14315320520984898,0.8199471843485927
328,404.37963099999996,0.91830879449844,0.38462334871292,-0.06080819293857,0.47592756699542654,-0.14245544161115406,0.8196917358709835
329,404.38796399999995,0.9172585606575,0.2148265838623,0.01543257758021,0.4764625490928183,-0.14232038235177755,0.8207725992008132
330,404.396297,0.97017759084702,0.31566980481148,-0.07884061336517,0.4759553014015663,-0.14151242314552756,0.8212952711144276
331,404.40463,0.95048016309738,0.26641362905502,-0.15947422385216,0.4770238058907643,-0.14209490649554182,0.8165365335892651
332,404.412963,0.97501856088638,0.3519651889801,-0.04433824494481,0.47698877295669284,-0.14206565156274897,0.8186296540863663
333,404.421296,0.9695371389389,0.27765828371048,-0.06938896328211,0.4774325721117918,-0.14148977338051327,0.8197755229716398
334,404.429629,1.02755343914032,0.29505035281181,-0.15706647932529,0.4780653544834683,-0.141145295026351,0.8178538692240815
335,404.43796199999997,0.9655669927597,0.32025477290154,-0.10724680125713,0.477442060198103,-0.1429619716138255,0.8204522424814652
336,404.44629499999996,1.16049146652222,0.32827201485634,-0.1142651066184,0.4769712564896561,-0.1421926824414,0.8173348952312857
337,404.45462799999996,1.0482497215271,0.22571264207363,-0.24763840436935,0.47668880345869996,-0.1415263025128112,0.8232286998203826
338,404.462961,1.14865744113922,0.27986112236977,-0.14984326064587,0.47679317240812347,-0.14205545795207142,0.8227142022580519
339,404.471294,1.26919829845428,0.16188196837902,-0.19377170503139,0.4757224297036928,-0.14024316048135613,0.8222857300116091
340,404.479627,1.33858704566956,0.15171311795712,-0.34054121375084,0.4764822551182336,-0.14144600654134895,0.8184633449632296
341,404.48796,1.39135229587555,0.26367291808128,-0.33639171719551,0.474396238521654,-0.14281527120239898,0.8205602606948541
342,404.496293,1.29168748855591,0.19730645418167,-0.26572206616402,0.4773048478729867,-0.14207005500793468,0.8201062922575041
343,404.504626,1.69037306308746,0.25409325957298,-0.32548013329506,0.47654638485032647,-0.14491773381525203,0.8191677988791948
344,404.51295899999997,1.48822546005249,0.23124530911446,-0.39589357376099,0.4764348146866775,-0.13776959205160305,0.8183297332452265
345,404.52129199999996,1.46038258075714,0.29154118895531,-0.33034673333168,0.47695228031703363,-0.14421079839978876,0.8186545663950398
346,404.529625,1.6767463684082,0.30527046322823,-0.34210377931595,0.47407753613530407,-0.14336449759347142,0.8195234804737326
347,404.537958,1.73197042942047,0.35790768265724,-0.37686222791672,0.477359197577652,-0.14113792351313978,0.8237474791857662
348,404.546291,1.68120324611664,0.2831397652626,-0.31779578328133,0.4780119779158612,-0.14376534491169182,0.8198767292256254
349,404.554624,1.57994985580444,0.38810688257217,-0.30649992823601,0.47287517664383877,-0.14269337362172652,0.8152781214032856
350,404.562957,1.73676037788391,0.38859352469444,-0.38549423217773,0.4807987505075887,-0.14139893103618978,0.8230841889673346
351,404.57129,1.61388897895813,0.39901855587959,-0.44684037566185,0.472833964289451,-0.14331781134313468,0.8157792869879276
352,404.57962299999997,1.78030455112457,0.34589460492134,-0.40890562534332,0.4749023671052898,-0.14446437358856223,0.8189432961600163
353,404.58795599999996,1.68460977077484,0.36320981383324,-0.37586325407028,0.4761954716273714,-0.14380708032724793,0.8207661764962335
354,404.59628899999996,1.44516789913177,0.14753799140453,-0.29082405567169,0.47771575499554075,-0.14430934069107956,0.8185626049430998
355,404.604622,1.63422656059265,0.23521552979946,-0.24945706129074,0.4782799312046591,-0.1440648278411551,0.8200128710999786
356,404.612955,1.55697393417358,0.33718574047089,-0.36377331614494,0.4782792013518663,-0.14460636644947245,0.8210973350369204
357,404.621288,1.46345627307892,0.27484074234962,-0.22466245293617,0.4771384414361448,-0.1445180542615,0.8190719448790255
358,404.629621,1.46947586536407,0.32509586215019,-0.28034779429436,0.47753037238607543,-0.14445531124971325,0.8215033278173326
359,404.637954,1.42629015445709,0.1529425829649,-0.40944349765778,0.47529619567248266,-0.1459734658805694,0.8205245465648418
360,404.646287,1.26609873771667,0.27422598004341,-0.23316635191441,0.4756049234039928,-0.14127376128216224,0.8190859580526549
361,404.65461999999997,1.54063200950623,0.22084592282772,-0.22778737545013,0.4754604125509459,-0.14504504447080613,0.8208783791989693
362,404.66295299999996,1.36143505573273,0.14226146042347,-0.22727513313293,0.4743933191104806,-0.14113218200449998,0.822377788777254
363,404.671286,1.23981869220734,0.32594114542007,-0.32386636734009,0.47664866155507646,-0.14389330027054795,0.8215098478356184
364,404.679619,1.36156296730042,0.22443190217018,-0.2256101667881,0.47610273166578665,-0.14192262474371428,0.8189969160118877
365,404.687952,1.16522991657257,0.27747896313667,-0.27660810947418,0.47659757185955404,-0.1422518005176469,0.8216274027921713
366,404.696285,1.20065450668335,0.19359238445759,-0.27384179830551,0.4754662513732908,-0.1435918589027561,0.8190589048424539
367,404.704618,1.11192679405212,0.22350980341434,-0.21247006952763,0.4749830888242132,-0.1445078363223949,0.8202674437542347
368,404.712951,1.0578293800354,0.25194162130356,-0.25826832652092,0.4761297362191336,-0.1437290833920847,0.8191691612710754
369,404.72128399999997,0.98928588628769,0.29848271608353,-0.19415590167046,0.4753509346319703,-0.1414438169829704,0.8186537878853939
370,404.72961699999996,1.12644994258881,0.22245962917805,-0.11705704778433,0.47447725218169584,-0.1446647911655663,0.8186735425676621
371,404.73794999999996,1.0010427236557,0.19702470302582,-0.14336287975311,0.47574359543469485,-0.14372320807709998,0.8192865216002173
372,404.746283,1.03021740913391,0.23211622238159,-0.01936436258256,0.4747415075496755,-0.1441903625215806,0.8154970772412357
373,404.754616,0.98034632205963,0.14812710881233,-0.12947994470596,0.477709186320402,-0.14434511564215816,0.820993890567702
374,404.762949,1.07381272315979,0.25360655784607,-0.06306224316359,0.4754684409316704,-0.1443253974525296,0.8212660770026999
375,404.771282,1.07378697395325,0.21226514875889,-0.13631895184517,0.4761479825389633,-0.14463413734825306,0.8195866370687682
376,404.779615,1.01446449756622,0.16316264867783,-0.13357822597027,0.4742977083945765,-0.1449946967922908,0.8175969610408856
377,404.787948,0.98462396860123,0.19249096512794,-0.13711299002171,0.4749261603063469,-0.14343125479561938,0.8222031106754224
378,404.79628099999996,1.0570867061615,0.24369384348392,-0.07369215786457,0.47600785080267444,-0.14286125192836835,0.8168510514862682
379,404.80461399999996,0.94750893115997,0.4268099963665,-0.15742509067059,0.4766223868545224,-0.1468492892323704,0.8196923197532182
380,404.812947,0.94781637191772,0.28252500295639,-0.15199488401413,0.4759115102339765,-0.14319629085307245,0.8175992965698243
381,404.82128,0.93892830610275,0.28447169065475,-0.00499477656558,0.47795660641728566,-0.14328893350095204,0.8193967780288388
382,404.829613,1.00242590904236,0.23152706027031,-0.15378786623478,0.476950090758654,-0.14409477613410204,0.82104137965611
383,404.837946,1.04351115226746,0.23157832026482,-0.18998079001904,0.4751407370275378,-0.14235470976148365,0.8177597668706152
384,404.846279,0.97150945663452,0.1806315779686,-0.19705030322075,0.4767939022609163,-0.1443633497977745,0.820714989487006
385,404.854612,0.9682309627533,0.35498768091202,-0.066545791924,0.4756129517847173,-0.14354737437501225,0.8191502824121591
386,404.86294499999997,0.97658109664917,0.3366222679615,-0.07858446985483,0.4749757902962816,-0.14545011277101427,0.8175778875545581
387,404.87127799999996,1.12583529949188,0.27325266599655,-0.13434667885303,0.4752910867029306,-0.1455034285175561,0.8189779398392651
388,404.87961099999995,1.04135942459106,0.29215595126152,-0.02676687389612,0.4761297362191336,-0.14325173533692653,0.8202157701764785
389,404.887944,0.87064057588577,0.20153279602528,-0.00758181372657,0.47779603880278876,-0.1443742975896714,0.8189866980727836
390,404.896277,0.88562494516373,0.17125676572323,-0.03114690631628,0.4755202604799857,-0.1453888294648153,0.819439206804548
391,404.90461,0.98951631784439,0.35757473111153,-0.06698122620583,0.476742082712602,-0.14485528274458265,0.8213492802211214
392,404.912943,0.88672637939453,0.2491240054369,-0.14277374744415,0.4740291225666898,-0.1450049147313959,0.8200675614026133
393,404.921276,1.0029639005661,0.25578373670578,-0.06780087202787,0.47711800555793565,-0.14513924413797855,0.8199041716906489
394,404.92960899999997,0.93821102380753,0.19423273205757,0.03922819718719,0.4748495257630643,-0.14390862717920408,0.8214543790233376
395,404.93794199999996,0.93267822265625,0.27822184562683,-0.00911866687238,0.4753341480177275,-0.14437870103485714,0.8207684147114652
396,404.94627499999996,0.97202181816101,0.24479526281357,0.09952411800623,0.47438893999372245,-0.14402398041316428,0.8220821497391683
397,404.954608,0.89873957633972,0.31590038537979,-0.02986620366573,0.4761983423816918,-0.14373054309767141,0.8211522199669662
398,404.962941,0.81001180410385,0.27729973196983,-0.00248458096758,0.4772464596495336,-0.14341742408518876,0.8201471640139213
399,404.971274,0.82599502801895,0.32012671232224,-0.04047048464417,0.47785880614300197,-0.14372397442253265,0.8211704176299427
400,404.979607,0.84443724155426,0.24776647984982,0.14281216263771,0.47493345883427857,-0.14514362325473673,0.8178430674027428
401,404.98794,0.70980882644653,0.29771423339844,0.03208182752132,0.47756759487852757,-0.14548226278655407,0.8211157273273082
402,404.996273,0.70980888605118,0.30941998958588,0.07344882190228,0.47664282273273056,-0.14410861900874591,0.8181034788793449
403,405.00460599999997,0.75704157352448,0.30626943707466,0.19588488340378,0.47505096513397854,-0.14454946226003265,0.8178648656728316
404,405.01293899999996,0.76446962356567,0.47893494367599,0.16102388501167,0.4739371611147509,-0.14418228548400305,0.8196018180068663
405,405.02127199999995,0.62940579652786,0.56730401515961,0.05011424794793,0.4767282155095316,-0.1436020768418602,0.821222967031051
406,405.029605,0.69216066598892,0.69698894023895,0.05784974992275,0.4751100832102255,-0.14293497922469184,0.8224068855752755
407,405.037938,0.69395369291306,0.38234370946884,0.05521148815751,0.4798725673130581,-0.14089206043554794,0.8215880880550458
408,405.046271,0.55402308702469,0.24768963456154,0.03295271098614,0.47652312687465104,-0.14510056193993978,0.8226529919371316
409,405.054604,0.5471585392952,0.21331533789635,0.09073843061924,0.47800842596560095,-0.1423503671373643,0.8194845549914305
410,405.062937,0.51273292303085,-0.07414039969444,0.13876512646675,0.47626840824983563,-0.14311014389505203,0.8142175966379591
411,405.07126999999997,0.56629234552383,0.12512554228306,0.08226012438536,0.4681535642974234,-0.14397435042322856,0.8209669346712071
412,405.07960299999996,0.86211109161377,0.46579483151436,0.13730512559414,0.4721956350365459,-0.14341816610219488,0.8179407703633215
413,405.08793599999996,0.56626665592194,0.65234333276749,0.09158369898796,0.4785128029025326,-0.14240288004583262,0.8150117251337795
414,405.096269,0.76974612474442,0.51220786571503,0.01837821304798,0.477490230482452,-0.14267659917169692,0.8169671467372347
415,405.104602,0.83116906881332,0.43836200237274,0.15395434200764,0.47349122105812547,-0.14194818175568877,0.8202290048404611
416,405.112935,0.70133054256439,0.48946240544319,0.01228202413768,0.4769157876773755,-0.14268826465217446,0.8214697545888469
417,405.121268,0.77671325206757,0.42117488384247,0.03738398104906,0.47469990594046424,-0.13830821124874795,0.8167304798048367
418,405.129601,0.75424951314926,0.29218158125877,0.02193859033287,0.47595822081273875,-0.13903299156500407,0.8207134324677132
419,405.137934,0.81108766794205,0.22120454907417,-0.12481817603111,0.4740254733027245,-0.13882719740575714,0.8183852020575072
420,405.14626699999997,0.84633278846741,0.18834148347378,-0.14630852639675,0.4745385598163214,-0.1435217687061857,0.818652230866101
421,405.15459999999996,0.61995410919189,0.23111721873283,-0.08772875368595,0.475988874630052,-0.14130661682206733,0.821073395865304
422,405.162933,0.62661391496658,0.18698391318321,-0.24663949012756,0.47520496407333673,-0.14445312169133365,0.8190603645480409
423,405.171266,0.69236558675766,0.18870005011559,-0.17025779187679,0.47609689284344076,-0.14293861632444385,0.821383534645548
424,405.179599,0.78211784362793,0.24535875022411,-0.05870782583952,0.47530568375879384,-0.14474799438398672,0.8207646194769408
425,405.187932,0.80511939525604,0.20709107816219,-0.18680459260941,0.4762362947269357,-0.14499034200395813,0.8202727960080519
426,405.196265,0.91928201913834,0.153249964118,-0.09618145227432,0.47504074719487444,-0.14590267015963163,0.8188662237050581
427,405.204598,0.91764277219772,0.11344543844461,-0.05309830978513,0.47470866417398266,-0.14801200555295407,0.8210689194348396
428,405.21293099999997,0.9692810177803,-0.00446968339384,-0.08721645921469,0.4749903873521459,-0.14537569211453774,0.8213799340384347
429,405.22126399999996,0.88337099552155,0.03826766833663,-0.01524046994746,0.47398898066306633,-0.14680480470462753,0.8189727822128612
430,405.22959699999996,0.91925638914108,0.14492532610893,-0.05245795100927,0.47358318251006426,-0.14315686663802754,0.8240244339923469
431,405.23793,1.06313157081604,0.34848168492317,0.07183512300253,0.4741072168155591,-0.14136057727190918,0.8214936937604633
432,405.246263,1.00767683982849,0.43674832582474,-0.1319645345211,0.47806024551391624,-0.14136499288130816,0.8185326323217275
433,405.254596,1.08610761165619,0.30114653706551,-0.08557715266943,0.47564068619085814,-0.14535523190790306,0.821467419059909
434,405.262929,0.91633635759354,0.30775502324104,0.03423342108727,0.47592318787866733,-0.1434582958416061,0.8208077294485907
435,405.271262,0.92963027954102,0.35683193802834,-0.08001888543367,0.4737984890840489,-0.14625377800999897,0.8207173250159439
436,405.279595,0.8937446475029,0.51223337650299,0.06584139168262,0.47557353973388666,-0.14378603623837855,0.820374294203155
437,405.28792799999997,0.99953150749207,0.39310169219971,0.10664487630129,0.4746896880013602,-0.14412613547578162,0.8216507580815531
438,405.29626099999996,0.83634316921234,0.34748271107674,0.04809072613716,0.47635526073222245,-0.14142338110476121,0.8216814118988663
439,405.304594,0.99581748247147,0.20565670728683,-0.02218193002045,0.476304171036701,-0.14522244735639897,0.8215683333727776
440,405.312927,0.60673719644547,0.2926938533783,0.04988371580839,0.478179211519202,-0.14187664401774489,0.8232338574467876
441,405.32126,0.82842844724655,0.06201206892729,0.03710222244263,0.4767661678547765,-0.14218466622488876,0.8185335081450794
442,405.329593,0.47087928652763,-0.02747126668692,0.08863805234432,0.4772041281875296,-0.14180291672142142,0.8209485423808193
443,405.337926,0.51216948032379,-0.15859055519104,0.01883927173913,0.47902588941613056,-0.14436189009218775,0.8191633224487306
444,405.346259,0.4916780591011,-0.3806659579277,0.006518822629,0.47862301067430096,-0.14198247267275407,0.8231076415704224
445,405.35459199999997,0.30922788381577,-0.55102634429932,0.04668194800615,0.47651363878833974,-0.14500272517301632,0.8224338414717693
446,405.36292499999996,0.34562566876411,-0.60517472028732,0.00859357509762,0.47634212338194587,-0.1420737042719,0.8220054665390325
447,405.37125799999995,0.05049845948815,-0.86341738700867,-0.00146001134999,0.47756102620338875,-0.14108909636127753,0.8201507646210335
448,405.379591,0.16765797138214,-1.00094020366669,-0.01790434867144,0.4746407392073653,-0.1431189021285704,0.8230630718931857
449,405.387924,0.00820936262608,-1.0378760099411,-0.04446630552411,0.4741115959323183,-0.1416255624926816,0.8195668823865
450,405.396257,0.19265748560429,-1.01684677600861,-0.01956927590072,0.4668791926636989,-0.14211822529228368,0.8180590065158143
451,405.40459,0.12572745978832,-0.2972659766674,0.10592766106129,0.4665989291911224,-0.14243134430476634,0.8163043430873326
452,405.412923,0.74897295236588,0.32632532715797,0.20733442902565,0.46440416452836014,-0.1434086658516704,0.8197537247015511
453,405.42125599999997,0.6930827498436,0.36989513039589,0.17639243602753,0.47544070652553055,-0.14028695164894592,0.8174378531319754
454,405.42958899999996,0.70765721797943,0.18268072605133,0.01691820286214,0.47229202426209693,-0.13879650709580407,0.822936661389409
455,405.43792199999996,0.95483464002609,0.19200430810452,-0.11890126764774,0.47405320770886533,-0.13740757290197858,0.8202405851714468
456,405.446255,0.9413104057312,0.28728926181793,-0.05389235541224,0.47427654266357444,-0.14248459923024082,0.8165443186857265
457,405.454588,1.05232238769531,0.21172726154327,-0.20698861777782,0.47695155046424076,-0.1403942521737551,0.8206230280350664
458,405.462921,1.02068877220154,0.12791748344898,-0.00998955126852,0.47428238148591934,-0.14164305463129181,0.8218039298544122
459,405.471254,1.02519702911377,0.21813084185123,-0.15409524738789,0.4748269003264755,-0.14199852943420407,0.8218995892271703
460,405.479587,0.92530143260956,-0.11010278761387,-0.18011927604675,0.4737306127742847,-0.13899067226721326,0.8195865397550621
461,405.48792,1.07709145545959,0.0210805144161,-0.18954534828663,0.47348100311902136,-0.13689592176554183,0.8162926654426418
462,405.49625299999997,1.0909743309021,-0.03180007264018,-0.20557986199856,0.4707745629913949,-0.1370382673886357,0.8159701678217673
463,405.50458599999996,1.01799929141998,0.06029590219259,-0.3031188249588,0.4684097426278255,-0.13431287541681428,0.8206741177305886
464,405.51291899999995,0.29191264510155,0.3300906419754,-0.04231471195817,0.4692323353825786,-0.1287059151396459,0.8293407790514887
465,405.521252,0.0544430539012,0.23790504038334,0.14849853515625,0.46260361768761427,-0.15059731444533977,0.8130622883232275
466,405.529585,-0.8869441151619,1.21019566059113,0.35761311650276,0.47233435572410093,-0.1309473903811704,0.8198427667423174
467,405.537918,-0.48969298601151,1.3606024980545,0.36084055900574,0.4686470420993102,-0.15329126192598877,0.8237850422761878
468,405.546251,-0.45913514494896,1.53237152099609,0.4154244363308,0.4757041833838642,-0.141365722734101,0.8185443099664184
469,405.554584,0.08784402161837,1.48308980464935,0.314453125,0.472686874623201,-0.14539393843436735,0.8230046836697327
470,405.56291699999997,-0.10855312645435,1.6989666223526,0.2607145011425,0.4755713501755071,-0.14157349966010305,0.8208989123908836
471,405.57124999999996,0.42887192964554,1.6073956489563,0.25822991132736,0.47694245163275306,-0.1413661606457765,0.8235871061986806
472,405.57958299999996,0.52945905923843,1.53500974178314,0.2607145011425,0.47469688921558567,-0.14428450136768572,0.8229038666705694
473,405.587916,0.67343658208847,1.26995360851288,0.17224290966988,0.4776142568004377,-0.14118395289596222,0.8207046742341959
474,405.596249,0.68670481443405,1.1786390542984,0.25479760766029,0.4768690770986132,-0.14154308912705407,0.8193858788937938
475,405.604582,0.7493571639061,0.92377734184265,0.18781635165215,0.4775084281454285,-0.14118394073174895,0.8230738737145245
476,405.612915,-0.76906728744507,0.98028218746185,1.02186691761017,0.4871837946833398,-0.1479718879777561,0.8296298007575836
477,405.621248,-1.25642943382263,0.64312219619751,0.36150649189949,0.47068625080342236,-0.11964516980307449,0.8065129786121601
478,405.629581,-0.10665766894817,0.75866800546646,0.03702537715435,0.47935952945631427,-0.14753760123739387,0.8223485946655275
479,405.63791399999997,0.45656096935272,0.58669412136078,0.28906944394112,0.4727591300497245,-0.1418489096116051,0.82348852741475
480,405.64624699999996,0.27797847986221,0.52506613731384,0.26368573307991,0.47604726285350607,-0.1415708235331949,0.8175932631200673
481,405.65458,-0.07200162112713,0.49166518449783,0.32802870869637,0.4723621387870948,-0.1372813448614,0.818557544630401
482,405.662913,-0.24917528033257,0.62245148420334,0.3374035358429,0.47469479697091216,-0.1403241863056102,0.8202799972222775
483,405.671246,-0.00742812780663,0.7132796049118,0.5233628153801,0.4752764896470673,-0.13956729246645508,0.8194143918095805
484,405.679579,-0.06196082755923,0.75820690393448,0.3841238617897,0.4752363964002959,-0.1366492680140908,0.822281448208556
485,405.687912,0.10326378047466,0.79824191331863,0.49367588758469,0.47630125162552855,-0.13976292950766428,0.8180713653564449
486,405.696245,0.291528403759,0.64404433965683,0.41527074575424,0.47458016142553167,-0.1407511623538265,0.8239790858054642
487,405.70457799999997,0.48227763175964,0.63971555233002,0.2934238910675,0.47615455121410094,-0.14083801483621428,0.8199121514145202
488,405.71291099999996,0.54247111082077,0.66730213165283,0.3135567009449,0.4775471590003183,-0.13850021119020406,0.823258672441755
489,405.72124399999996,0.69356942176819,0.57808762788773,0.21122777462006,0.47882299033962955,-0.14047818524496938,0.8215164651676101
490,405.729577,0.80788570642471,0.56026017665863,0.18438406288624,0.4770924120533225,-0.13726306204893163,0.8237979849990531
491,405.73791,0.71055167913437,0.41592398285866,0.13838091492653,0.47510132497670715,-0.14002712405457754,0.8184435902809611
492,405.746243,0.7763803601265,0.52985608577728,0.05177918076515,0.4791667996620642,-0.13863742351531938,0.8223681547203846
493,405.754576,0.83862280845642,0.34989044070244,0.08264432102442,0.4776923997061592,-0.1376652595948204,0.8178591241641918
494,405.762909,0.68465572595596,0.30386164784431,0.05654342845082,0.47731214640091835,-0.1396037851061143,0.8247256765560224
495,405.771242,0.70901483297348,0.13539685308933,-0.00450810557231,0.4777376505793357,-0.13644555393530405,0.8217324042806816
496,405.77957499999997,0.75091969966888,0.12632939219475,-0.07968587428331,0.47816169505216627,-0.13720539151405817,0.8215083881300326
497,405.78790799999996,0.91364687681198,0.01664925180376,-0.0254605486989,0.4781558562298214,-0.13899141428421938,0.821212749091946
498,405.796241,0.82937610149384,0.06941457092762,-0.1751501262188,0.47611513916327036,-0.13970086769181836,0.8214741337056061
499,405.804574,0.8507896065712,0.07469110190868,-0.05112600699067,0.47554872473891935,-0.1376447628955449,0.8229118463944417
500,405.812907,0.87235677242279,0.01365238707513,-0.02961005456746,0.4790528939694775,-0.13748566715084795,0.8225280411389407
501,405.82124,0.79123646020889,-0.21944995224476,-0.16503250598907,0.4786719108114439,-0.138527215743551,0.8229586542869102
502,405.829573,0.62423169612885,-0.52236384153366,-0.21831011772156,0.4807476608120663,-0.1382783116126551,0.8213673805703918
503,405.837906,1.06856179237366,-0.57681977748871,-0.27817058563232,0.4804849138065265,-0.1375221597905061,0.8212769761377449
504,405.84623899999997,0.66362637281418,-0.87806886434555,-0.3156698346138,0.4803352453270734,-0.1361397821076061,0.8205288283678948
505,405.85457199999996,0.49774861335754,-1.31048810482025,-0.23542043566704,0.47941134900462856,-0.13587044209850102,0.8216683718622948
506,405.86290499999996,0.32090795040131,-1.57011413574219,-0.35588416457176,0.48222935929590305,-0.141908027687851,0.8275036909142317
507,405.871238,0.35704961419106,-1.95491695404053,-0.21656836569309,0.47968017811677854,-0.14048250354066225,0.8234985507264428
508,405.879571,0.09683461487293,-2.37181425094604,-0.12574028968811,0.4798871157120683,-0.14017298513529286,0.8158756275566255
509,405.887904,0.03807555884123,-2.7963445186615,-0.17176906764507,0.4769057643656826,-0.14041622074282856,0.8199319060967898
510,405.896237,-0.12850661575794,-3.0314576625824,-0.10909103602171,0.47454906969654287,-0.14198720455169692,0.8197972239280235
511,405.90457,-0.08655050396919,-3.04032015800476,-0.08058238774538,0.47572004551790203,-0.14391304278860306,0.821109791191257
512,405.912903,-0.0224636849016,-3.10327982902527,-0.04595194384456,0.46927666177554994,-0.14264037414472958,0.8169643246397683
513,405.92123599999996,-0.10927033424377,-3.02933168411255,-0.24584543704987,0.47329839395017037,-0.13836825380519896,0.8236431588931958
514,405.92956899999996,0.17449697852135,-2.96831846237183,-0.1856519728899,0.4738569746212081,-0.14215857398753265,0.8215375822417591
515,405.937902,0.1636621505022,-3.24615597724915,-0.36881935596466,0.4719254921893683,-0.13819613018814386,0.821380323293258
516,405.946235,0.23161673545837,-3.23521876335144,-0.60987496376038,0.4736422519294581,-0.13954049470473265,0.8161114186656714
517,405.954568,0.21942436695099,-3.42689037322998,-0.80172562599182,0.47110377525796726,-0.13969095385804486,0.8233652309495572
518,405.962901,0.33497017621994,-3.10865879058838,-1.01529705524445,0.47469917608767137,-0.13757457538526838,0.8249181630660082
519,405.971234,-0.34955742955208,-3.58544158935547,-1.29231476783752,0.47117530083169695,-0.13652653110270613,0.8237773544934325
520,405.979567,1.13759219646454,-3.2234103679657,-1.51649069786072,0.4616195328381592,-0.11337415296204285,0.8204772521038448
521,405.98789999999997,0.62179833650589,-3.05714845657349,-1.78859066963196,0.4646615592800836,-0.12521305862738163,0.8207052581164305
522,405.99623299999996,0.75491559505463,-2.52278470993042,-1.90178000926971,0.46281950814383366,-0.12605285157962753,0.8258113082574335
523,406.00456599999995,1.32011938095093,-2.30157995223999,-1.87201631069183,0.4618638875533122,-0.13985068214182958,0.8262179822337866
524,406.012899,1.58845388889313,-2.12850451469421,-1.79653143882751,0.46666208578615814,-0.14243608834792143,0.8237125435653999
525,406.021232,1.13608109951019,-1.83470940589905,-1.73820745944977,0.4698220564394582,-0.13316808914651632,0.8283590783878244
526,406.029565,1.15606009960175,-1.96869742870331,-1.67645168304443,0.47450722480306834,-0.14132325746575203,0.8296684342987682
527,406.037898,1.28482270240784,-2.40918517112732,-1.59528028964996,0.47013151402376124,-0.14187227706519898,0.823215562470105
528,406.046231,0.88890355825424,-2.65595269203186,-1.5531702041626,0.4663160382484908,-0.13723272450116225,0.8231757611644509
529,406.05456399999997,0.81977081298828,-2.73453736305237,-1.54528117179871,0.4631143200154204,-0.1325904106607245,0.8326228784055122
530,406.06289699999996,1.39644968509674,-2.22371292114258,-1.58800566196442,0.462397166660854,-0.13923867624633163,0.8238582221829163
531,406.07122999999996,0.92699187994003,-2.54924416542053,-1.71876657009125,0.4666020432297061,-0.13341189647207446,0.8244383091829264
532,406.079563,1.23935759067535,-2.21677112579346,-1.80280685424805,0.4617556260556591,-0.13770065745528876,0.830390988564005
533,406.087896,1.37283337116241,-2.18303728103638,-1.7420243024826,0.46280865766564183,-0.14217745284644898,0.8270193606006857
534,406.096229,1.66045546531677,-1.98493683338165,-1.62440371513367,0.45898281798070817,-0.13600665695813263,0.8257603158756173
535,406.104562,1.40421068668365,-1.86898100376129,-1.40440285205841,0.4580868993486673,-0.13695815388037244,0.8270759971774357
536,406.112895,1.83657896518707,-1.37524116039276,-1.35381472110748,0.4656257434767122,-0.13093023884053162,0.8302674001576948
537,406.121228,2.53671836853027,-1.7361968755722,-1.42830085754395,0.4622219533336408,-0.1319492471461398,0.8272020184263887
538,406.12956099999997,2.14753603935242,-1.59836673736572,-1.29930770397186,0.46729730100047856,-0.13600529456625204,0.8324921860986826
539,406.13789399999996,2.40844225883484,-1.81288588047028,-1.36710858345032,0.4640259061540878,-0.13444520989242856,0.8314444094288101
540,406.14622699999995,2.06426429748535,-2.09384846687317,-1.23529779911041,0.46070663296446523,-0.1415779882547806,0.8247521458839887
541,406.15456,1.70597195625305,-2.07517552375793,-0.9878898859024,0.4597593326957857,-0.1415105985135449,0.8240395176167387
542,406.162893,1.52762019634247,-1.99379920959473,-0.65472549200058,0.4528817838552051,-0.13850643926737244,0.8314169669637878
543,406.171226,1.77008461952209,-1.6332790851593,-0.42568302154541,0.4589859320192918,-0.14275959559849283,0.8269180570329938
544,406.179559,1.47406077384949,-1.76593494415283,-0.31592598557472,0.4567130731076612,-0.13919780448991426,0.8255254005899234
545,406.187892,1.19647932052612,-1.49322032928467,-0.1784031689167,0.45994880248089176,-0.1425265536016347,0.8298345487944939
546,406.19622499999997,1.31348514556885,-1.5416054725647,0.03845977038145,0.4574359193140143,-0.13608850994888572,0.8241527907702387
547,406.20455799999996,0.99840450286865,-1.584099650383,0.01994068361819,0.4614751192988183,-0.14050270829881936,0.8258880887712754
548,406.21289099999996,0.77922344207764,-1.47536706924438,0.16681270301342,0.45568719202158364,-0.1396351687762204,0.8258176336483081
549,406.221224,0.85673207044601,-1.46015214920044,0.13195173442364,0.45884774655711935,-0.13917486278378263,0.8280243192400254
550,406.229557,0.88723862171173,-1.42488145828247,0.21099723875523,0.46016060576146933,-0.13806103443612858,0.8291492656785612
551,406.23789,0.6941329240799,-1.49736952781677,0.15323713421822,0.4576739486382928,-0.13482160714207855,0.829531221973653
552,406.246223,0.60724943876266,-1.67182815074921,0.37725922465324,0.4552946771894183,-0.13004571807627754,0.8315455183690907
553,406.254556,0.75727200508118,-1.67223811149597,0.40348821878433,0.45881694676924695,-0.1370225877177959,0.8306352459654519
554,406.262889,0.16637727618217,-1.84823346138,0.54113912582397,0.4546669551304408,-0.12755757691908878,0.8252273287091938
555,406.27122199999997,0.49096083641052,-1.81557524204254,0.69000911712646,0.45077562332153365,-0.13127382920712855,0.8268318370896939
556,406.27955499999996,0.59687560796738,-1.67380046844482,0.88183403015137,0.4461554118565153,-0.1363120152025806,0.822787868733309
557,406.287888,1.251345038414,-1.52685153484344,1.23323559761047,0.4505167202073704,-0.13430781510411427,0.8223469403325296
558,406.296221,1.63927257061005,-1.32306480407715,1.55320858955383,0.45668183540811325,-0.13300814190689386,0.8228030496714072
559,406.304554,1.83391547203064,-1.98188865184784,1.7298446893692,0.4496497037459398,-0.1327061044926551,0.8317763464791439
560,406.312887,2.15078902244568,-1.46829771995544,2.30396246910095,0.44723140950105605,-0.13877468449728875,0.819899987201301
561,406.32122,1.55156934261322,-1.31755769252777,2.62127089500427,0.45993984961996226,-0.14299515558748876,0.8241645657286346
562,406.329553,-0.78840625286102,-1.81636953353882,3.95100879669189,0.4508225285277071,-0.12666360456116327,0.8309823639538826
563,406.33788599999997,-0.9355343580246,-1.24258506298065,4.77696514129639,0.4534796306065153,-0.13323140387632448,0.8158527588357734
564,406.34621899999996,-1.64853227138519,-1.24214959144592,4.97588539123535,0.44264292230411423,-0.13832746719827446,0.8189132262249376
565,406.35455199999996,-1.24203419685364,-0.27892619371414,4.70926666259766,0.4520318946059867,-0.14748928498248673,0.821598403307856
566,406.362885,-1.32005536556244,-0.13115771114826,4.27492618560791,0.44964050760074487,-0.1388153129694408,0.8230259953712928
567,406.371218,-0.73768997192383,0.17999123036861,4.08758354187012,0.451118313536352,-0.14227997283546326,0.8174820335543886
568,406.379551,0.05918169021606,0.98576372861862,4.02406024932861,0.4368548490563213,-0.13448248104173263,0.8267693616905989
569,406.387884,-0.39233326911926,2.06783723831177,4.02721118927002,0.44951132365635504,-0.1410306959736102,0.8251687458583284
570,406.396217,-1.32930183410645,2.44621062278748,4.32692289352417,0.4532660270223816,-0.14149050323330611,0.8237100134090499
571,406.40455,0.12262815237045,2.86341500282288,4.25963449478149,0.436715009261151,-0.15141303441962448,0.8224300462372448
572,406.41288299999997,-0.82239627838135,4.54350471496582,4.23079299926758,0.45256950417343467,-0.15215146298311222,0.8231029705125458
573,406.42121599999996,-0.12535604834557,5.15004873275757,3.96801590919495,0.4471627060247928,-0.13493734963086224,0.8239507675170897
574,406.429549,1.17821633815765,6.36703300476074,3.64886331558228,0.4618041855948316,-0.14381015787319285,0.8286869282625162
575,406.437882,1.89846301078796,7.25638389587402,3.3224093914032,0.453705106462751,-0.13772488856802143,0.8238391486965878
576,406.446215,2.00481367111206,8.61739826202393,2.80769205093384,0.4567689798316173,-0.13699644682358672,0.8314513187019194
577,406.454548,2.84239888191223,9.82295799255371,2.8732385635376,0.46927072563949895,-0.13235739299229182,0.8370960002042805
578,406.462881,1.46094632148743,10.62258148193359,2.34389472007751,0.46454502611744186,-0.12730170269401733,0.8430531560158244
579,406.471214,2.5521388053894,11.96740818023682,2.56581687927246,0.4744474741877336,-0.14073336610988674,0.8370815004621235
580,406.47954699999997,1.07591342926025,13.32926654815674,2.24179673194885,0.46391564972546634,-0.12170431565265306,0.8381329750528143
581,406.48787999999996,2.26239037513733,15.98914813995361,1.83952510356903,0.456734044211251,-0.12219300075453163,0.8427727952295417
582,406.49621299999995,4.12641620635986,18.97426414489746,2.31556630134583,0.4434065429531796,-0.11535331910970305,0.8445630754743305
583,406.504546,5.04809427261353,23.77286720275879,3.21096396446228,0.4182405861056581,-0.11771773805423674,0.8499518219305541
584,406.512879,9.11574459075928,33.23606872558594,5.53253936767578,0.4003612849177143,-0.10553381880935407,0.836757445821957
585,406.521212,13.50811290740967,40.47109603881836,8.45710468292236,0.3971082093764326,-0.10362453606663877,0.8727590405211152
586,406.529545,23.35822677612305,44.61211013793945,12.57460784912109,0.41976354560073564,-0.10865773473467143,0.8218267985752652
587,406.537878,25.00237274169922,50.22658538818359,14.27240753173828,0.46333463824525206,-0.1470480159837367,0.8474304238144234
588,406.54621099999997,24.86442375183105,54.04767990112305,16.28142547607422,0.43993054604043774,-0.11506085493126735,0.8557206757214603
589,406.55454399999996,25.22218704223633,57.80439758300781,20.03334045410156,0.40882577701490713,-0.1338049830222612,0.875736158721301
590,406.56287699999996,13.651686668396,62.49799346923828,23.44740676879883,0.5445153372628347,-0.22289499944570101,0.9084647042410714
591,406.57121,-36.6536750793457,48.98912811279297,27.69676780700684,0.49426998410906114,-0.3131791766808959,0.9640214881118458
592,406.579543,-82.98072814941406,63.48403930664062,34.56343460083008,0.43171843703912244,-0.21982657666109082,0.926061455084353
593,406.587876,-95.84385681152344,56.6920166015625,38.96793746948242,0.4629567204689489,-0.1829598874461898,0.97877142380695
594,406.596209,-100.88378143310548,60.49362564086914,41.34251403808594,0.4479446216505398,-0.2007827466847949,0.8601166277515643
595,406.604542,-103.85346221923828,66.5196533203125,40.77719116210938,0.4414725790218428,-0.11737786993688468,0.8641377273870968
596,406.612875,-74.2421875,72.45458221435547,36.62007522583008,0.4368367000501979,-0.02917819181267143,0.8344912042423174
597,406.62120799999997,-44.29303741455078,79.46138000488281,32.76190948486328,0.3985020335839714,-0.07426395099990203,0.8668437296030469
598,406.62954099999996,-29.42732810974121,93.96273803710938,34.45856094360352,0.35287625935612854,-0.10398985171804591,0.891512364757304
599,406.63787399999995,-18.71211242675781,127.98870086669922,38.38179397583008,0.5606784625929224,-0.11079435445824488,0.7214877556781377
600,406.646207,-24.72071266174316,184.4596405029297,45.18364715576172,0.4630250346903898,-0.19370048629994285,0.9245486162146744
601,406.65454,-42.29814529418945,244.24833679199216,56.37557220458984,0.4543441169115959,-0.21684573621166017,0.9897123064313612
602,406.662873,-49.96831893920898,289.100341796875,72.21698760986328,0.33240135835141527,-0.19021922228287652,1.1555024555751254
603,406.671206,-58.46870803833008,341.59100341796875,92.87220001220705,0.46764315391073463,-0.24356455219035203,1.2749505529598315
604,406.679539,-91.1056900024414,394.97213745117193,108.60186767578124,0.8031656304184275,-0.142213848172402,1.3547290101343274
605,406.68787199999997,-86.47620391845703,421.7672424316406,116.9991455078125,1.092209815979004,0.021959673993441835,1.2366386335723254
606,406.69620499999996,-80.2826919555664,427.7673034667969,110.88633728027344,1.192031101304657,-0.0904244671062551,1.3238248046563592
607,406.70453799999996,-77.49027252197266,416.0916137695313,94.62456512451172,1.1736322908985366,-0.039953628973084694,1.3598648382692917
608,406.712871,-37.01649856567383,388.9178466796875,69.60514831542969,1.2846766685952948,-0.27458696949238676,1.7323968848403621
609,406.721204,-23.16953468322754,346.3714599609375,69.49931335449219,1.3768302177896306,-0.07818371057510407,1.5655078693312041
610,406.729537,-10.95523738861084,299.68505859375,76.7305908203125,1.432979544814752,-0.011303161023830612,1.3551551468518315
611,406.73787,64.97099304199219,283.2049255371094,82.29792785644531,1.4905087801874897,-0.01700058427392245,1.2465904196914357
612,406.746203,34.0767936706543,346.310791015625,94.28363037109376,1.7158305888273273,-0.5076977184840612,1.299862958947006
613,406.754536,-7.23176527023315,471.8611145019531,98.29975128173828,0.48238958631243056,-0.5183106539200765,1.0891463805218131
614,406.76286899999997,-33.78429794311523,473.4913330078125,91.2466049194336,0.9482436277428448,-1.2828876534286806,3.6398327107332187
615,406.77120199999996,-139.7742919921875,43.38905715942383,45.76268768310547,-0.13290536646940307,-0.7240205394978428,2.1445106973453445
616,406.779535,-117.42224884033205,169.564453125,4.03189563751221,1.0251601861447703,-0.8334050859723775,2.4115858272630337
617,406.787868,-125.23506927490234,26.03538131713867,-21.1479606628418,0.33608645808939996,-0.7937142313743122,2.1078347186652975
618,406.796201,-110.71721649169922,1.93715012073517,-29.75307273864746,0.11369210116717243,-0.12454355249599489,1.2176068948239693
619,406.804534,-64.33766174316406,-46.47060012817383,-38.77025604248047,0.1310852230811602,-0.30331336722082036,1.0159076963152203
620,406.812867,-68.63018798828125,-67.24585723876953,-42.35628509521484,-0.3076934327884591,-0.15002430701742345,1.2043740798015978
621,406.8212,-46.95693969726562,-79.06709289550781,-47.10345458984375,-0.20334303379058877,-0.06225451522943877,1.2072242036157723
622,406.82953299999997,-33.95800018310547,-94.99942779541016,-45.31045532226562,-0.15336604750886224,-0.07684397454164489,1.1813301942786387
623,406.83786599999996,-29.656494140625,-107.21029663085938,-36.79846572875977,-0.15457088849982448,-0.12830560304680613,1.2578207132767651
624,406.84619899999996,-23.72736549377441,-116.40609741210938,-25.21705627441406,-0.05511659140489489,-0.20252424843457242,1.3187270261803448
625,406.854532,-27.95302772521973,-126.48355102539062,-13.14403820037842,0.0839733834169347,-0.13429242737439184,1.2463387664483518
626,406.862865,-23.62926292419434,-139.127197265625,-1.27028334140778,0.1395791525743449,-0.08431739344888775,1.1656051752518632
627,406.871198,-15.64610385894775,-150.31552124023438,8.90249538421631,0.1111289676354857,-0.021219396469544897,1.040831098751146
628,406.879531,2.72901630401611,-161.42886352539062,14.27546310424805,0.1608813903769663,-0.0031169123795571426,0.983988216945103
629,406.887864,18.12445259094238,-174.53955078125,17.31204605102539,0.2625501399137541,-0.08986798476199694,0.959892078321807
630,406.896197,28.54793739318848,-187.17802429199216,20.35918998718262,0.32405313180417444,-0.1565732761305204,0.9468357903616764
631,406.90452999999997,39.27847290039062,-198.57745361328125,21.36808395385742,0.36866489721804285,-0.19132449918863773,0.9499275441072428
632,406.91286299999996,48.19601058959961,-210.52273559570312,19.76641273498535,0.40710524636871936,-0.24822765467118266,0.9416067356965979
633,406.921196,55.17757415771484,-217.9704742431641,16.52262687683105,0.4695705978237857,-0.2769541983701745,0.9196941220030488
634,406.929529,61.37445449829102,-225.48417663574216,12.01940727233887,0.5284039341673561,-0.3023600335023836,0.9006255986739172
635,406.937862,67.70875549316406,-231.0370178222656,6.49342489242554,0.5615727755488183,-0.30961199682586016,0.8763046653903266
636,406.946195,74.0182113647461,-235.24305725097656,-0.24214431643486,0.5973026217246541,-0.3174375271310612,0.8729135746858561
637,406.954528,79.21260833740234,-239.1648712158203,-7.58705377578735,0.6503029258883725,-0.3161001692012867,0.8974858692714142
638,406.962861,84.50720977783203,-242.55709838867188,-15.03574275970459,0.7030943948395397,-0.30180899464354183,0.9336915308115428
639,406.97119399999997,90.2800750732422,-245.8058624267578,-22.42811393737793,0.7472987564242611,-0.2661235235175306,0.9532951822086254
640,406.97952699999996,96.37035369873048,-248.1030120849609,-28.16732025146484,0.7899019669513316,-0.23673943110874693,0.9725436385796988
641,406.98785999999996,102.02742004394533,-249.10867309570312,-31.99107360839844,0.8268239546795285,-0.2178871631622316,0.9825447627476285
642,406.996193,106.70606231689452,-248.8900451660156,-34.64422225952148,0.8596425153771224,-0.2175701637657316,0.9949784376183336
643,407.004526,110.32061004638672,-247.23962402343753,-37.6325569152832,0.8671431638756582,-0.22260099041218673,1.013372090398049
644,407.012859,113.8278350830078,-243.8966827392578,-41.68620681762695,0.854015447655503,-0.2342223391240959,1.0432052612304683
645,407.021192,116.68807220458984,-238.89509582519528,-47.0436897277832,0.8466943429440867,-0.23362656028903264,1.0827343804495673
646,407.029525,119.14813995361328,-232.30555725097656,-53.17276382446289,0.8496039254324774,-0.2452488091527204,1.1037035377658142
647,407.03785799999997,120.45104217529295,-224.92633056640625,-59.32957077026367,0.8638235987449183,-0.2787602434352949,1.1571058935048633
648,407.04619099999996,119.85599517822266,-214.9965057373047,-65.5045394897461,0.920701124230209,-0.27522719636255405,1.2452480744342418
649,407.05452399999996,120.4185028076172,-207.75296020507807,-72.8388900756836,1.0740424175651704,-0.27899725096566325,1.4513410840715684
650,407.062857,118.75501251220705,-206.31874084472656,-81.54229736328125,1.3938753945486888,-0.2615241615139704,1.7516589651302419
651,407.07119,116.32617950439452,-219.35862731933597,-92.25770568847656,1.8313495480284399,-0.2042529777604704,2.0184629790636954
652,407.079523,119.08006286621094,-242.4038543701172,-104.47655487060548,2.2511637940698743,-0.09690102265805611,2.1389089311872214
653,407.087856,126.96392822265624,-268.29931640625,-118.15763092041016,2.625964417749521,0.008004937244921429,2.1306464136863243
654,407.096189,141.98536682128906,-240.62075805664065,-126.9806900024414,2.217520499716,-0.3984905019098398,1.8544913311393896
655,407.104522,-20.56092643737793,-248.12646484375,-119.13493347167967,2.453775016628966,-0.3843678017051857,2.171033158594248
656,407.11285499999997,47.04994201660156,-249.02770996093753,-107.5231475830078,3.31178314831792,0.7738962951971561,0.6093699591500418
657,407.12118799999996,66.27407836914062,-271.7460327148437,-121.02982330322266,2.945284551503707,0.20280977901147346,0.5609683601223693
658,407.12952099999995,45.07783889770508,-276.7825012207031,-107.86813354492188,3.238992107157804,0.07795176943954182,0.19840588375013674
659,407.137854,0.33712175488472,-274.6173400878906,-103.83512878417967,3.4048734392438607,0.8420667842942837,-0.35294488984711325
660,407.146187,50.51023864746094,-267.19464111328125,-104.07901000976562,3.023619554480727,1.3567822320120673,-0.6937146673397142
661,407.15452,108.83030700683594,-222.6360626220703,-105.59764862060548,2.7120841279321786,1.1758176647886938,-0.8771324157714847
662,407.162853,132.3655548095703,-176.83572387695312,-100.63733673095705,2.883614326009945,1.1513018121524734,-1.1403253127117552
663,407.171186,164.33836364746094,-132.92559814453125,-78.81169891357422,2.6808946959826407,0.9286395870909396,-1.8000007162288743
664,407.17951899999997,137.9796600341797,-63.64548110961914,-55.77717590332031,2.373710554473254,0.5619514718347663,-2.0950041011888154
665,407.18785199999996,63.08989715576172,16.68237113952637,-30.36750602722168,2.0875080264344508,0.33122262176202244,-2.4083322408247967
666,407.19618499999996,-21.77310752868652,95.54357147216795,-11.96576690673828,2.0702620915004184,0.09278453734456325,-2.3117129656733293
667,407.204518,-113.78966522216795,149.6201934814453,-15.6047306060791,2.370194610284299,-0.0388021919192102,-1.8634735808080558
668,407.212851,-212.8829498291016,108.75881958007812,-58.91841506958008,1.5591293451737387,-0.5963061780345683,-0.73924225203845
669,407.221184,-302.1649169921875,73.12120056152344,-21.75293350219727,-0.18852954008141326,0.03419103366988061,0.8994999710394408
670,407.229517,-218.513427734375,112.95980834960938,-26.98687171936035,-0.24357245892894486,0.021774434313482652,3.021690212950414
671,407.23785,-236.51388549804688,135.8697967529297,-60.80532455444336,-0.6202807231825224,1.499154616375359,3.1900308570083302
672,407.246183,-91.43142700195312,208.3985748291016,-86.33897399902344,0.22987025124686122,2.969916791332011,1.276348269715601
673,407.25451599999997,66.93891143798828,219.49642944335935,-90.6114501953125,1.5596282725431478,2.0639890553999916,-0.29015764898183366
674,407.26284899999996,39.189208984375,181.4059600830078,-35.26066589355469,0.9163105244539224,0.513211075140505,0.5563510194116714
675,407.27118199999995,-53.27386474609375,193.0831756591797,41.38013076782227,0.6781837891559214,1.436354286816655,1.552730385138064
676,407.279515,32.20246124267578,163.18099975585938,47.66848754882812,1.167452870583048,1.3088210748166447,1.9179207938058038
677,407.287848,93.09482574462892,141.31654357910156,25.77523422241211,1.4959333380874325,-0.3072796549115857,1.937553444687201
678,407.296181,85.60670471191406,100.81539916992188,12.54654598236084,1.2150584434976388,-1.4820945506193202,1.2871210915701734
679,407.304514,21.91641807556152,92.56220245361328,1.14382553100586,0.6684035671000581,-1.7685683892697703,1.010101376747598
680,407.312847,-26.07406425476074,91.72147369384766,1.91932845115662,0.6436384940633969,-0.9482330205489172,0.8854749251385122
681,407.32117999999997,-40.07273483276367,78.59651184082031,17.85167503356934,0.5941515066185775,-0.21179617667684794,1.0178923120304029
682,407.32951299999996,-38.81795120239258,70.7007064819336,23.06585121154785,0.6029053123629826,0.33692520491930916,1.0977609790101346
683,407.33784599999996,-6.87247657775879,58.94167709350586,18.06625747680664,0.9441077952482265,0.06403019233625715,1.4176890314841755
684,407.346179,-13.14281749725342,41.77518081665039,12.76758098602295,0.8342463629586357,-0.2047866461228347,1.1841985157557897
685,407.354512,-17.80055999755859,34.92756652832031,8.70840358734131,0.6086144155385541,-0.1027203700980357,1.0919405489551774
686,407.362845,-18.74288177490234,29.98567199707031,7.36078500747681,0.483232760915951,0.11648523564241327,1.0574974332536968
687,407.371178,-5.7900505065918,26.51589965820312,6.98099756240845,0.5291989384865274,0.10444035335462959,1.0905135407739754
688,407.379511,1.5577175617218,21.92571640014648,4.68058013916016,0.5481617791312081,-0.09101694335742856,1.0010583060128346
689,407.387844,-1.41564774513245,16.99020767211914,3.04434204101562,0.49233621480513573,-0.1354795572709061,0.9399759526155429
690,407.39617699999997,-0.68940716981888,14.24704837799072,1.47862029075623,0.49154296213266835,-0.0939597584763347,0.9413731828027847
691,407.40450999999996,2.50549483299255,10.65296173095703,-0.57854878902435,0.47187761384613663,-0.06456069192107858,0.9299384331216622
692,407.412843,9.37308120727539,10.80615997314453,-1.78961539268494,0.4154371728702469,-0.13574547913609694,0.8775722737214999
693,407.421176,6.82298040390015,11.07580280303955,-1.42709743976593,0.4071512514231153,-0.19404119374800713,0.8532245791688254
694,407.429509,3.41900086402893,11.61047172546387,-0.56953257322311,0.4303293812031653,-0.19642638916871938,0.8510328798877949
695,407.437842,-0.70669680833817,12.08359336853027,0.47246736288071,0.4095829263025398,-0.18013900640059488,0.825587584047901
696,407.446175,-5.4814977645874,14.43487930297852,2.25875329971313,0.40390309022397447,-0.19882681418438367,0.8297215675821111
697,407.454508,-8.7139892578125,15.61100673675537,4.0166072845459,0.40185947807467753,-0.1973565622251857,0.8314389598612877
698,407.46284099999997,-10.46306133270264,17.12020492553711,5.66690874099731,0.4085372418773418,-0.19123854685802857,0.8204828962987785
699,407.47117399999996,-12.89531230926514,18.64345741271973,7.5942268371582,0.41391917637416326,-0.17590702796468977,0.8290762803992447
700,407.47950699999996,-13.76233100891113,19.99189567565918,8.49500465393066,0.43516387744825713,-0.1534914240545153,0.8365194164976785
701,407.48784,-11.86641311645508,17.00483512878418,8.62020492553711,0.4508425264942398,-0.1256109500417908,0.8550999115924449
702,407.496173,-9.80385303497314,16.03889846801758,8.20394897460938,0.4600793974740163,-0.09894621615507143,0.8759831409065092
703,407.504506,-7.51944494247437,13.70984268188477,6.82021427154541,0.48076152801513666,-0.09034024817602959,0.880744116646903
704,407.512839,-6.08407306671143,11.12590312957764,5.35441303253174,0.45268428568937347,-0.09467085405271836,0.8725063168272683
705,407.521172,-3.75840258598328,10.09764385223389,4.29774904251099,0.44515911413698767,-0.1321616708015908,0.8577406163118326
706,407.529505,-2.61823606491089,9.23006439208984,4.12172794342041,0.433843330461152,-0.15402017807473978,0.8412059472531682
707,407.53783799999997,-2.27749013900757,9.06241989135742,4.54085350036621,0.42863403047834076,-0.1612465600578153,0.836492752542301
708,407.54617099999996,-3.47116446495056,9.11851406097412,5.2464485168457,0.4507398605346683,-0.15709147161366938,0.8285229546683173
709,407.554504,-5.54507303237915,9.87093353271484,6.44173765182495,0.42547109175701525,-0.16265563818873163,0.8285219815312601
710,407.562837,-5.31436634063721,10.98679351806641,6.81854963302612,0.4576025690351214,-0.15141311956911632,0.8264868600027897
711,407.57117,-6.01086759567261,11.03279495239258,6.80489587783813,0.44379224582594284,-0.14147466542769488,0.8367316576899315
712,407.579503,-3.64426589012146,11.43803882598877,6.5455527305603,0.4746153403301632,-0.13143332637086225,0.8267418219118703
713,407.587836,-3.82259178161621,9.46858406066895,5.73445129394531,0.4668488794443561,-0.12544127143159184,0.8464208914309131
714,407.596169,-2.16358327865601,9.31277370452881,5.25651502609253,0.4544221138467592,-0.11947518708754593,0.8327667080626193
715,407.60450199999997,-2.11253428459167,9.12855529785156,4.25932741165161,0.4610596384320938,-0.12014363493238162,0.8385607661033163
716,407.61283499999996,-2.84223246574402,9.54763031005859,3.33316802978516,0.4621439563984775,-0.11660869024237856,0.8351522562455151
717,407.62116799999995,-2.46641993522644,9.26110744476318,2.79900789260864,0.4620557901810622,-0.11438091190493876,0.8294037410191121
718,407.629501,-1.50501561164856,9.16049575805664,2.72626376152039,0.4614778927394326,-0.12738626830431835,0.8329456679675039
719,407.637834,-0.2521978020668,8.53927421569824,3.08668208122253,0.4675946430284153,-0.12485912867954796,0.8234031832948021
720,407.646167,-0.36244139075279,8.43574047088623,2.9140419960022,0.4594786799683867,-0.1393100801779296,0.8283556724081234
721,407.6545,-1.39218485355377,9.6830005645752,2.49153518676758,0.46779992629070716,-0.12547518525804796,0.8321462358747213
722,407.662833,0.09009808301926,9.92311000823975,2.44840097427368,0.45821968390017137,-0.13102119066277346,0.8247831889561243
723,407.67116599999997,0.48594054579735,11.67602062225342,2.60357236862183,0.4619501561534653,-0.13450334266740407,0.8317428705643632
724,407.67949899999996,1.18129026889801,13.29291915893555,2.33300876617432,0.46449320656912646,-0.13249549330497243,0.8326993669782368
725,407.68783199999996,1.06034004688263,16.42915534973145,1.9395489692688,0.4580622789811112,-0.12037943820564082,0.8365970728348714
726,407.696165,1.98119735717773,17.69426536560059,1.68371367454529,0.4712312562125071,-0.11474973084975304,0.8424472808837886
727,407.704498,1.84659504890442,21.05298805236816,1.31223046779633,0.4537773132324214,-0.11201678490152144,0.8427618960944969
728,407.712831,2.76379013061523,25.20109367370605,1.58269166946411,0.43766347729429894,-0.09328270445064592,0.8519626150325856
729,407.721164,5.0107250213623,31.49252319335938,2.83633089065552,0.39474365662555305,-0.10626212674744286,0.8427097359482122
730,407.729497,9.72780323028564,43.45743942260742,5.91084051132202,0.39018506906470507,-0.10326029086599592,0.8268634640440652
731,407.73783,12.79901885986328,53.02027130126953,7.02453088760376,0.4534790953811336,-0.11461804107743877,0.8344861439296173
732,407.74616299999997,13.66776371002197,60.12903213500977,6.56975269317627,0.44076048597997547,-0.107268666734501,0.836889305893256
733,407.75449599999996,19.63933944702148,62.47335052490234,6.32672691345215,0.4346253434006051,-0.09247154605631938,0.8460911925958121
734,407.76282899999995,24.91189193725586,67.15597534179688,8.9774341583252,0.4201446260724745,-0.10031840022729387,0.8636409409192143
735,407.771162,23.96696472167969,71.78150177001953,11.99522018432617,0.44991600270173976,-0.09907379442331733,0.8702519475197305
736,407.779495,15.87659740447998,76.70191955566406,14.80945014953613,0.4468321800231928,-0.1258194203279459,0.8765473657724806
737,407.787828,-5.63773393630981,88.9551010131836,15.44530296325684,0.5273158209664479,-0.18032971693544997,0.8459446381549449
738,407.796161,-31.67783355712891,81.8182144165039,12.16647529602051,0.7368206004707183,-0.26292080781897753,0.8817699004192745
739,407.804494,-68.38042449951172,88.38667297363281,17.00631332397461,0.5136342437899847,-0.20812808250894388,0.8688756397792274
740,407.81282699999997,-82.6812744140625,85.85010528564453,21.9954948425293,0.5547307462108377,-0.15795262492432854,0.8805016108921592
741,407.82115999999996,-70.4949951171875,76.73872375488281,20.79026985168457,0.4971064840044295,-0.07950267013238366,0.8324522874793223
742,407.82949299999996,-40.35797882080078,68.63996887207031,17.01206588745117,0.5389850966784417,-0.07454117341917346,0.8097703602849223
743,407.837826,-18.28995513916016,67.79736328125,15.21916580200195,0.482475271030348,-0.10519121374402754,0.8562839274503744
744,407.846159,-12.53410243988037,69.52660369873047,16.97695159912109,0.44749313471268665,-0.150603627672001,0.9076781175574479
745,407.854492,-17.83734703063965,75.69503784179688,23.51565933227539,0.3462315578849949,-0.22324776162906532,0.9763399435549367
746,407.862825,-26.64470863342285,87.2640609741211,34.29934310913086,0.28119040995228056,-0.2648125132735898,0.9475265230451316
747,407.871158,-49.98284149169922,110.5177764892578,50.93827819824219,0.16053671739539285,-0.37636058671133876,1.021127603491958
748,407.879491,-97.02818298339844,161.8544464111328,67.95658874511719,0.60751452737925,-0.2781572633860061,0.7764792442321775
749,407.88782399999997,-77.07662963867188,223.86361694335935,82.61997985839844,0.16996865369835715,-0.07741606357146326,1.2539771138405316
750,407.89615699999996,-108.50914764404295,321.4691467285156,96.82582092285156,0.2089390706042857,-0.2969445501055041,1.35432379586356
751,407.90449,-191.72337341308597,435.24127197265625,104.1852798461914,0.4506605012076245,-0.1301983911163949,1.585152489798409
752,407.912823,-179.39300537109375,526.4653930664064,106.24832916259766,1.2657465253557478,0.08758107010199082,1.4230495569657304
753,407.921156,-151.31410217285156,589.8529052734375,98.726318359375,1.3258644026152937,0.0704914878825755,1.363347793111996
754,407.929489,-137.44287109375,601.6826171875,62.49995422363281,1.2186864930756234,0.08543857506343264,1.6222347531999857
755,407.937822,-117.2800750732422,578.2345581054688,37.60266876220703,1.4955324056197183,-0.2599008715882592,2.148491022538165
756,407.946155,-104.2295150756836,518.2128295898438,45.44973373413086,1.53901431025291,-0.22613858690067243,2.1097002224046357
757,407.95448799999997,-119.5072784423828,448.5657958984375,78.53695678710938,1.644722490894551,-0.09182734148842958,1.6131637534316703
758,407.96282099999996,-33.70530700683594,456.81274414062494,67.986328125,2.103398770702128,0.5123327702892071,1.5121779149892376
759,407.97115399999996,185.28851318359372,526.6043090820312,67.21928405761719,1.6121249296227276,0.33389237462257854,2.018075865142199
760,407.979487,205.95104980468753,700.09521484375,102.27305603027344,0.4487983547911346,-0.7793816741631958,1.639957233351104
761,407.98782,-30.95572280883789,624.9755859375,118.15089416503906,1.8175568872568562,-1.782273273078763,6.090099179014867
762,407.996153,-97.93765258789062,8.1773681640625,27.89284133911133,0.26765604408419896,-0.41157644622179895,2.3636851018788865
763,408.004486,-94.06298065185548,204.3548126220703,-18.63752174377441,1.1532870117498906,-0.1928704368824857,2.1908752285704316
764,408.012819,-34.84889602661133,73.8179702758789,-34.79328918457031,1.6445089846241234,-0.8419978861906092,3.291067785146284
765,408.021152,-95.93016052246094,-70.16340637207031,-19.07693099975586,0.8143808890362173,-0.4444154914544551,1.4088182060085999
766,408.02948499999997,-43.19514083862305,-115.21515655517578,6.86128711700439,-0.09546092578342959,0.06937649177045203,1.6679518563406803
767,408.03781799999996,22.7346019744873,-139.13470458984375,-32.29341125488281,0.027602819763884692,0.6881550866730357,1.5535799337893113
768,408.046151,84.95066833496094,-166.4649200439453,-49.9803466796875,-0.018395153539521425,-0.15804413630037856,1.2906823839460102
769,408.054484,62.37002182006836,-169.522216796875,-47.80350112915039,-0.2320021755841316,-0.06821459653426225,0.9458912635336111
770,408.062817,72.68795776367188,-169.44436645507812,-39.19940948486328,-0.11621244099675408,-0.1430138276547806,1.0382089809495572
771,408.07115,55.41277694702148,-174.100341796875,-30.42033195495605,0.052891939270253055,-0.11694611335287244,0.9947498477235132
772,408.079483,50.11526870727539,-183.4673767089844,-22.80716514587402,0.08812361834000612,0.008071699008649999,0.9391663998973612
773,408.087816,51.90063095092773,-193.3568420410156,-18.20066452026367,0.12692300640806836,0.032452122897518365,0.9452208694146601
774,408.09614899999997,52.06796646118164,-206.09533691406247,-14.97872638702393,0.2373612656885265,0.018248138379077548,0.9503560163536846
775,408.10448199999996,49.61480331420898,-222.49118041992188,-13.43297672271729,0.3519414152417867,-0.0036985754054418367,0.9491015453727877
776,408.11281499999996,46.80435562133789,-240.3994598388672,-11.41341114044189,0.4238986482425611,-0.035677448827392856,0.9039600528016376
777,408.121148,42.97545623779297,-256.9227600097656,-8.9080114364624,0.44748710126292957,-0.041036690984453054,0.8371113757697908
778,408.129481,39.62042236328125,-270.71487426757807,-6.53031873703003,0.43471161200075714,-0.05218471799577959,0.7680145088507203
779,408.137814,36.88055419921875,-280.35302734375,-4.59259748458862,0.42454773065995205,-0.04779795602876326,0.720881004722751
780,408.146147,37.12261581420898,-286.71389770507807,-3.55208516120911,0.4571120106444071,-0.0378570812089102,0.703999898871597
781,408.15448,38.56634902954102,-292.2584533691406,-2.0416624546051,0.513878063279755,-0.03556742960092959,0.7255749799767316
782,408.16281299999997,42.46159744262695,-296.3416748046875,-0.2920253276825,0.5798393366288163,-0.01784825355422755,0.7377312134723275
783,408.17114599999996,49.00492858886719,-299.16265869140625,1.65001034736633,0.6516188991313081,-0.007425695657730612,0.7859951622632081
784,408.17947899999996,57.13570022583008,-300.1893615722656,3.98015236854553,0.7385186273224499,0.030628616104320404,0.857687677655901
785,408.187812,70.11589813232422,-299.70587158203125,6.85792541503906,0.8479208848914327,0.06620316481103672,0.9078579532856846
786,408.196145,81.73716735839844,-299.6404724121094,10.87666606903076,0.951667415852449,0.10111683485459284,0.9625718058372029
787,408.204478,100.18235778808594,-300.4906921386719,12.95297336578369,1.0058768914670355,0.11946056570325612,0.9912979359529459
788,408.212811,115.67610168457033,-301.9105529785156,13.8178882598877,1.0395398431894733,0.07065402001750715,1.0408029750901826
789,408.221144,126.88092803955078,-304.9278869628906,14.36101722717285,1.0795990301638234,-0.006476783630798979,1.0983964375087192
790,408.229477,134.42974853515625,-308.1410217285156,13.88252067565918,1.140812270495356,-0.06796100918127551,1.1765730137727692
791,408.23780999999997,139.62515258789062,-312.22967529296875,12.2807445526123,1.22151822459941,-0.10073160030403877,1.269829808449258
792,408.24614299999996,144.29518127441406,-316.470458984375,8.4466438293457,1.3232139665253306,-0.11482750882907755,1.3901199613298683
793,408.25447599999995,150.3626251220703,-320.2616577148437,2.36049652099609,1.4533241427674581,-0.13386452684597142,1.5466922643233316
794,408.262809,155.72640991210938,-324.2956237792969,-5.15194320678711,1.6476598077890827,-0.16714934183626734,1.7369920380261479
795,408.271142,159.0693359375,-330.4918212890625,-14.11053276062012,1.8872416749292489,-0.21273549722165508,1.8963825459382968
796,408.279475,161.7936248779297,-337.6409912109375,-28.40287399291992,2.1442061054463286,-0.13919077357467347,1.8868615675945672
797,408.287808,175.41162109375,-339.8587646484375,-48.84349822998047,2.406066777754803,0.0787683348266449,1.8038432452143458
798,408.296141,193.69497680664065,-340.9342346191406,-69.65811157226562,2.7264799390520364,0.25109461375645203,1.7694915070825692
799,408.30447399999997,207.26324462890625,-342.8111877441406,-83.71868896484375,2.8579320712965357,0.37206099957835914,1.6958472193503866
800,408.31280699999996,197.98764038085935,-271.9742126464844,-97.65936279296876,3.140353767239317,-0.06126194584126326,1.634866364148198
801,408.32113999999996,134.5275115966797,-269.00543212890625,-85.7299575805664,4.112474480453803,0.5576877204739317,0.5954650956757214
802,408.329473,174.97152709960938,-314.5979309082031,-86.10437774658203,3.7434235397650277,0.4125763445484397,0.19112820527991428
803,408.337806,118.03134155273438,-302.8277587890625,-105.20392608642578,3.6058846298529166,0.6539256232125418,0.08120737513717347
804,408.346139,125.44303894042967,-312.16778564453125,-124.45468139648438,3.4099030008121405,1.6780855217758488,-0.347413895081501
805,408.354472,190.25460815429688,-274.06890869140625,-147.33444213867188,3.272433378258529,1.8895351643465,-0.7742957679592837
806,408.362805,225.66580200195312,-199.40106201171875,-142.55291748046875,3.516883850097656,1.5784965242658344,-1.3328534729626713
807,408.371138,189.53961181640625,-145.08895874023438,-113.92588806152344,3.068815542727101,1.2748465246083784,-2.0054246941391303
808,408.37947099999997,101.64617156982422,-79.9290771484375,-69.78021240234375,2.779030897179428,0.7517589355001643,-2.6495112205038263
809,408.38780399999996,-26.88315773010254,-6.03905916213989,-5.26342105865479,2.380069226634746,0.40221384593418674,-2.7272819986148753
810,408.39613699999995,-126.0749282836914,90.77757263183594,49.38441467285156,2.3247726596131613,0.0016444997519867344,-2.6659638541085373
811,408.40447,-323.0748291015625,176.44476318359375,55.12816619873047,2.3300196200000998,0.14496056400999693,-2.11413811664192
812,408.412803,-379.2237548828125,101.23735809326172,22.85686302185059,1.193185825737155,-0.03548820103917755,0.006547850005480611
813,408.421136,-314.2238464355469,119.86748504638672,14.24320411682129,0.36958536323235913,0.24317957917038263,1.6571977187176143
814,408.429469,-278.79104614257807,47.18513488769531,-35.55413055419922,-1.0432994608976407,0.7924673508624642,3.3691803289919475
815,408.437802,-121.95682525634766,144.27777099609375,-110.49623107910156,-2.0269393920898438,2.6709973082250476,3.115603193944814
816,408.44613499999997,49.36535263061523,321.68670654296875,-155.16555786132812,-0.11738203009780612,3.1297154329261,-0.2823099798085734
817,408.45446799999996,213.76210021972656,259.16946411132807,-145.45484924316406,2.6693314922099214,0.08661063349976837,-1.3104396936844804
818,408.46280099999996,-60.55313110351562,256.8434753417969,-24.02707672119141,0.7043349986173673,-0.47168235389553775,1.8224424245406172
819,408.471134,-156.75314331054688,249.0860748291016,61.23255920410156,1.5131473541259766,3.0552361935985326,1.914883438421755
820,408.479467,90.55715942382812,178.0631561279297,43.65900421142578,1.3110594846764387,2.0584382816236846,2.3561520479163347
821,408.4878,110.86859130859376,156.37998962402344,23.67943572998047,1.4714581625802172,-0.2804361070905408,1.3670984579592336
822,408.496133,113.52008056640624,125.64982604980467,27.97975540161133,0.7177552398370235,-1.847230755552954,0.7849718599903336
823,408.504466,16.06081008911133,134.96043395996094,11.80721569061279,0.7566907941078652,-2.4123799071020007,1.139392074273557
824,408.512799,-52.58484649658203,132.5492706298828,4.85112905502319,1.106363705226353,-1.4012611155607264,1.0600163985271847
825,408.52113199999997,-74.31108856201172,111.9490203857422,24.27005195617676,1.0842333034593234,-0.24761107503151428,1.3516313202527102
826,408.52946499999996,-70.8117446899414,77.40281677246094,33.69622802734375,0.9686681202479774,0.8880876035106429,1.5014080125458387
827,408.537798,0.76493364572525,63.1463508605957,20.11143684387207,0.9072622960927531,0.8301224027361183,1.3444044152084662
828,408.546131,28.24386215209961,49.75779724121094,14.135986328125,0.7777504045136122,-0.20456316519756731,1.299476720848862
829,408.554464,-9.48099708557129,40.13324356079102,11.5610933303833,0.7372719900948663,-0.42393917940100817,1.1142973024017957
830,408.562797,-26.26494979858398,27.74043273925781,9.49035549163818,0.6873743388117571,-0.03880183003386632,1.1412896915357937
831,408.57113,-17.24848365783691,17.75136566162109,7.327712059021,0.5671670972084509,0.23939276228145712,1.0958299831468234
832,408.579463,1.17808866500854,15.16860008239746,4.5757155418396,0.5256366243167795,0.015513168609872447,1.017531278182049
833,408.58779599999997,-2.4091215133667,9.50713443756104,3.20468711853027,0.524687718371956,-0.2253541897754275,0.9247450925865948
834,408.59612899999996,-13.34155941009521,4.91419363021851,3.37330532073975,0.5043768396182938,-0.2305373366998163,0.8817119014506438
835,408.60446199999996,-19.56605529785156,1.89150965213776,4.18860816955566,0.4581921927782948,-0.13277709484100306,0.8611608038143234
836,408.612795,-19.7906665802002,0.88205218315125,5.02419519424438,0.42859992202447345,-0.1315789198388857,0.8532358675586939
837,408.621128,-19.19552040100098,1.0266444683075,5.57554244995117,0.4203136113225193,-0.17129906586238264,0.8291699934978878
838,408.629461,-19.10123443603516,1.28217232227325,5.72874116897583,0.4092759988745867,-0.16523814931207753,0.8343036807313254
839,408.637794,-14.45629215240479,3.19445443153381,5.50077342987061,0.39685344209476425,-0.1002942238535204,0.8432435989379887
840,408.646127,-10.90367412567139,5.00189685821533,5.60799407958984,0.38410464111639486,-0.1188805151958857,0.8203746834579775
841,408.65446,-9.64647674560547,8.03682613372803,5.93834114074707,0.4168110964249591,-0.14135835122088977,0.818426463068748
842,408.66279299999997,-11.15120983123779,9.65718269348145,6.26961040496826,0.41956366324911326,-0.11399120700602652,0.8305156474210775
843,408.67112599999996,-7.71078252792358,11.86159420013428,6.79352378845215,0.3986545484893173,-0.11305397870589284,0.8093631024263346
844,408.679459,-6.03888988494873,15.21918773651123,7.3517861366272,0.4017356707125295,-0.13300595234851426,0.8075228515936408
845,408.687792,-5.57030391693115,18.31062316894531,8.20612525939941,0.4083451446221795,-0.1380339690617153,0.8032947657059653
846,408.696125,-6.49390268325806,20.3354549407959,6.89129447937012,0.43706631173892857,-0.12275096105069488,0.8435774822624367
847,408.704458,-3.64938926696777,19.96169281005859,6.00796127319336,0.42646816798618875,-0.14242385114942244,0.843584488849251
848,408.712791,-2.47390103340149,20.22854423522949,4.71869564056396,0.43260009921326936,-0.1513101008473612,0.8334158877937162
849,408.721124,-3.54270577430725,21.78644943237305,3.93356609344482,0.4471184282886735,-0.12659218846535203,0.8613053146673705
850,408.72945699999997,-2.94761061668396,20.03377151489258,3.93556451797485,0.45831354296937243,-0.11631344045911529,0.8662914743228836
851,408.73778999999996,-3.04205012321472,20.06071662902832,3.84056162834167,0.4910925943024306,-0.12289408518343571,0.8578751038531868
852,408.74612299999995,-2.84143900871277,17.10493278503418,3.69968247413635,0.49851733811047644,-0.12474022349532755,0.848027832654058
853,408.754456,-2.52525663375854,16.3819465637207,4.06734895706177,0.4745589956945306,-0.10789241109575509,0.8375353715857682
854,408.762789,-2.60435390472412,15.92901229858398,3.90170216560364,0.4952525605960765,-0.09655156914068774,0.8371819282064632
855,408.771122,-0.52140349149704,14.64148426055908,3.93710088729858,0.46339458348799695,-0.10522962832937448,0.848545152313855
856,408.779455,-0.19617946445942,15.28985691070557,3.75918412208557,0.4840948143783877,-0.0990767138344898,0.8396207069864081
857,408.787788,-0.73453950881958,15.11632061004639,3.088219165802,0.49007201681331725,-0.08653723463720203,0.8433150271980131
858,408.79612099999997,1.1697381734848,13.32844543457031,2.52824068069458,0.49291498807011835,-0.08835907493318877,0.8448856704089102
859,408.80445399999996,2.25071048736572,13.85991668701172,2.42726945877075,0.47606940172156526,-0.11592380854548265,0.8268613231425388
860,408.81278699999996,2.31748676300049,13.56189632415771,2.1253547668457,0.4763280128946112,-0.09845025685368775,0.8223973488321111
861,408.82112,3.91509771347046,13.82692241668701,1.87118411064148,0.4898513579855163,-0.10866379251285509,0.8261956000814632
862,408.829453,4.22925710678101,14.32345962524414,1.45520901679993,0.48354173193172545,-0.1119070150414296,0.8225783523248162
863,408.837786,6.61793804168701,13.9589672088623,2.0781729221344,0.4726616217165581,-0.11867452640922652,0.8156920939075704
864,408.846119,4.78457307815552,16.9351863861084,1.92502546310425,0.49415695423982553,-0.11577072192211531,0.8244272154204705
865,408.854452,6.48423147201538,16.22572326660156,1.87208080291748,0.48200193716555206,-0.10949146990873365,0.8210924693516326
866,408.862785,7.12827730178833,19.59213066101074,2.1166455745697,0.47498990078361625,-0.1248948793022,0.827542129828005
867,408.87111799999997,7.87124395370483,22.14825248718262,2.14295172691345,0.47288899519005606,-0.11122893313972346,0.832063129970005
868,408.87945099999996,10.06218910217285,26.93828201293945,2.37563252449036,0.4543533617136429,-0.10069542393392449,0.8364574276671123
869,408.88778399999995,12.84858798980713,31.61040687561035,2.87175583839417,0.43777052237063063,-0.09352752140590102,0.8364898331311286
870,408.896117,17.77840042114258,40.43580627441406,4.96856880187988,0.4073448327122898,-0.09395361554865918,0.8305475663165652
871,408.90445,19.81497955322266,50.73383712768555,5.25898742675781,0.4620109772195622,-0.0956866814165704,0.8272517457300306
872,408.912783,18.25513648986816,58.16507720947266,3.82430744171143,0.46309923639102857,-0.10738792468090408,0.8377046001200774
873,408.921116,18.1097354888916,66.88436126708984,1.54578709602356,0.4683069306976938,-0.09313309071015305,0.8383723667689733
874,408.929449,23.86803817749023,71.83546447753906,0.07772678881884,0.46716607346826633,-0.08701506926088877,0.8427106117715643
875,408.93778199999997,26.4284553527832,79.2767562866211,-1.1565922498703,0.47194471164625507,-0.08123833914192347,0.833974468464754
876,408.94611499999996,21.55664253234863,86.89588928222656,-2.79811882972717,0.48181042379262445,-0.08140965992090612,0.8729181484300265
877,408.95444799999996,8.5235481262207,92.42062377929688,-2.54545950889587,0.4353035712728694,-0.1206742987340806,0.9016835932828938
878,408.962781,-14.89164161682129,102.37416076660156,3.5871160030365,0.42575388538594183,-0.15582503104696427,0.843916717840701
879,408.971114,-22.02251815795898,115.67567443847656,6.86248302459717,0.48676232902371125,-0.20900003764094183,0.77284287433235
880,408.979447,-27.54691505432129,116.04788970947266,2.1563994884491,0.9142150684278836,-0.25318016811292954,0.7863548337196816
881,408.98778,-40.28397750854492,117.26447296142578,8.57592964172363,0.488601655376201,-0.21651693752833773,0.8438033473734948
882,408.996113,-44.32159805297852,116.38413238525392,19.06305885314941,0.6172071670999336,-0.19947048352689184,0.8297151448775305
883,409.004446,-28.63671112060547,116.12329864501952,26.43686485290527,0.6462808531157825,-0.16485723913932346,0.8362648438434213
884,409.01277899999997,-1.46056973934174,122.0279541015625,31.23518943786621,0.5422550318192458,-0.16091139949097957,0.8681561995525745
885,409.02111199999996,7.2298583984375,134.64889526367188,39.49416351318359,0.49669197627476325,-0.22984906118743262,0.9114019238218969
886,409.029445,10.48011302947998,143.31222534179688,51.4695930480957,0.44969553850134997,-0.24255370607181428,0.9573077182380519
887,409.037778,9.71078205108643,148.85934448242188,70.4885482788086,0.3647122091176561,-0.29121403791466527,1.0926459760082008
888,409.046111,-23.91670989990234,150.22747802734375,99.99969482421876,0.16839859436969387,-0.42762688228062246,1.326474948805206
889,409.054444,-124.22125244140624,178.97216796875,127.27648162841795,-0.013494506782415306,-0.5718869092513101,1.4666255639523877
890,409.062777,-232.4052734375,264.35113525390625,140.53860473632812,0.13523982495677755,-0.30610145354757545,1.298655879740812
891,409.07111,-224.39669799804688,392.72338867187506,136.4991912841797,1.2408729475371691,-0.1633274798490561,1.4013964789254325
892,409.07944299999997,-221.16827392578125,508.56497192382807,140.00985717773438,1.444316883476413,-0.046503641167465304,1.3873035080578866
893,409.08777599999996,-183.16189575195312,582.049072265625,123.37295532226562,1.360530366702955,0.18081997122083365,1.453477995736258
894,409.09610899999996,-155.05978393554688,579.3846435546875,92.94947052001952,1.4827702969920875,-0.13596923983826936,2.0739317913444673
895,409.104442,-139.3081817626953,535.3783569335938,85.36323547363281,1.8148554587850765,-0.4212095299545602,2.451549062923509
896,409.112775,-143.7698211669922,475.01858520507807,97.0211181640625,1.4908248551037846,-0.2091947380377326,1.6463289455491672
897,409.121108,-71.42793273925781,477.6435546875,91.86067199707033,1.7476757205262479,0.5333700958563357,1.2595556220229795
898,409.129441,91.82408905029295,517.2557373046875,103.5303955078125,1.8208340236118856,-0.31352296167490407,1.7621347855548468
899,409.137774,0.47316494584084,698.4730834960938,133.88616943359375,0.5878339494977672,-0.7122683038516918,1.724166286234953
900,409.146107,-192.7042388916016,708.177490234375,148.95013427734375,1.4887511000341296,-1.4158113635316183,4.676792378328284
901,409.15443999999997,-132.6234893798828,71.81414794921875,86.44046783447266,0.7994062073376713,0.07409421156863776,2.979250148851044
902,409.16277299999996,-166.39340209960938,184.3815155029297,53.78417205810547,1.794869948406609,-0.3176912969472459,2.8833690954714406
903,409.171106,-133.810791015625,85.4879150390625,11.21192169189453,1.1075502512406326,0.23356182234627854,2.8174896629489194
904,409.179439,-67.81311798095703,-20.06619644165039,18.33061981201172,0.7818026445349867,-0.1796883831218796,2.1168644574223734
905,409.187772,-78.6864242553711,-77.12471771240234,46.91253280639648,0.36670894038920504,-0.3602639023138551,1.2918178402647682
906,409.196105,-32.10367202758789,-113.38345336914062,62.76275253295898,0.336525659171902,0.5300305814159163,1.4731066567557192
907,409.204438,84.63842010498047,-140.04425048828125,16.98106575012207,-0.17979835977359693,0.7063497329244806,1.0662066206640122
908,409.212771,130.87672424316406,-156.88877868652344,-5.38830661773682,-0.061690837753062236,-0.26468247783427346,1.046354819317253
909,409.22110399999997,114.81916809082033,-155.52865600585938,-9.74074935913086,-0.2115426988017806,-0.23569024339014183,0.7699623399851275
910,409.22943699999996,117.54761505126952,-155.2769012451172,-12.85042476654053,-0.0952624909731806,-0.33871670158541933,0.8668662090690764
911,409.23776999999995,94.72744750976562,-159.44998168945312,-13.96141338348389,-0.02619691953367143,-0.360643839349552,0.80056652730825
912,409.246103,77.6656494140625,-164.67010498046875,-14.86104583740234,0.07721542095651428,-0.31663600279360404,0.8458173518278163
913,409.254436,64.02412414550781,-174.65182495117188,-16.81810569763184,0.2239735515750184,-0.26911888803754486,0.972431338563257
914,409.262769,54.14582061767578,-191.9895782470703,-21.39735412597656,0.38109013012477344,-0.21580277657022243,1.0636354952442397
915,409.271102,44.7580680847168,-213.9879913330078,-28.25850105285645,0.5087304601863939,-0.19278543336050816,1.0887472970145091
916,409.279435,35.24198913574219,-239.9190826416016,-34.40950012207031,0.6224092658685173,-0.1453523124967306,1.0009533045243244
917,409.28776799999997,26.04290771484375,-265.7635803222656,-37.22350692749023,0.6381342362384408,-0.10705761763514286,0.9155368804931642
918,409.29610099999996,21.03487968444824,-284.6005249023437,-37.26174545288086,0.5752741074075499,-0.02555920457353367,0.8516793348351305
919,409.30443399999996,24.08855056762695,-296.7970275878906,-37.74380493164062,0.5243458553236356,0.045128604587243874,0.7744076300640499
920,409.312767,32.12870407104492,-304.81512451171875,-39.05908203125,0.5116119676706745,0.09198833485038878,0.7145448606841418
921,409.3211,41.11424255371094,-308.4774475097656,-38.68492126464844,0.5326173743423153,0.09879741133475815,0.6970375411364499
922,409.329433,47.9999885559082,-310.5251159667969,-34.44160461425781,0.5946203153960561,0.10658748295842345,0.6903672704891285
923,409.337766,58.70148849487305,-307.3412475585937,-25.22109222412109,0.6423534665788918,0.09792105275757448,0.7310018734056122
924,409.346099,62.00971603393555,-298.6784973144531,-14.55804824829102,0.7744171668072132,0.11439677403897652,0.809652513387252
925,409.354432,77.33604431152344,-294.5188903808594,-7.80798482894897,0.8373778206961499,0.2527624003741204,0.8181641053180305
926,409.36276499999997,95.66464233398438,-291.2552490234375,-3.01589059829712,0.9073259392563173,0.17916183082424897,0.8934902658267898
927,409.37109799999996,109.37483978271484,-289.5516967773437,1.90968954563141,0.9840393066406243,0.09462247089463878,0.9506737456029775
928,409.37943099999995,115.88947296142578,-290.9803771972656,5.99905204772949,1.0315669312769051,-0.017719305291467344,1.0236248678090623
929,409.387764,118.0897216796875,-292.6622619628906,8.53693580627441,1.0803852275926233,-0.07399379598851122,1.0547630154356662
930,409.396097,121.21822357177734,-294.5297241210937,8.40868663787842,1.1495225283564356,-0.11890498959288263,1.1353229016673805
931,409.40443,124.14057159423828,-297.6874084472656,5.64442205429077,1.2607888786160213,-0.13674823605284386,1.2503956775276028
932,409.412763,130.2347412109375,-300.4653015136719,-0.10436225682497,1.3848703734728753,-0.11698750817045918,1.3865931180058693
933,409.421096,139.24513244628906,-304.5804748535156,-8.30826091766357,1.5435591522528203,-0.10082288056003776,1.5501868968107264
934,409.42942899999997,149.88450622558594,-310.5789489746094,-17.12983512878418,1.751969590479014,-0.123674407297251,1.7082909175327845
935,409.43776199999996,157.40997314453125,-319.5335998535156,-27.02828407287598,2.0119361488186582,-0.13363830897272855,1.836388062457649
936,409.44609499999996,164.39573669433594,-331.3559265136719,-41.0674934387207,2.2821033244230304,-0.03385142100100612,1.8433837501370172
937,409.454428,179.1354522705078,-339.31201171875,-60.95928192138672,2.550354782415896,0.17399352423998776,1.7992107235655488
938,409.462761,199.57366943359372,-347.19390869140625,-80.69247436523438,2.8677366217788385,0.3475623957964837,1.7505922122877466
939,409.471094,218.3760223388672,-352.15090942382807,-96.06884765625,3.228715390575175,0.5145257833052652,1.5786275085137815
940,409.479427,230.58804321289065,-310.28125,-105.63541412353516,3.0802938889484017,0.6086919745620417,1.0757232198909836
941,409.48776,214.8469390869141,-297.4645690917969,-109.98092651367188,3.5440188038105864,0.23058701534660506,1.0746098537834325
942,409.496093,190.3510284423828,-293.9111328125,-90.46700286865234,4.328245435442242,0.674988055715755,-0.3304376894113969
943,409.50442599999997,194.775634765625,-289.5018310546875,-90.70380401611328,3.5713647336375955,0.5568277105993152,-0.31782914181144895
944,409.51275899999996,155.0763397216797,-280.42498779296875,-90.77723693847656,3.5228818776656166,0.8802919971699611,-0.5835546766008652
945,409.52109199999995,179.88980102539062,-238.8513336181641,-89.5300521850586,3.3299749724718986,1.2325325790716672,-1.242905149654466
946,409.529425,191.9716339111328,-183.9014587402344,-88.23731231689453,2.8815442688611093,1.4371293904829998,-1.8667259994818242
947,409.537758,195.2691345214844,-109.70430755615234,-82.2241439819336,2.485680677452866,1.5242251571343868,-2.4188966167216397
948,409.546091,176.30154418945312,-35.40363311767578,-70.28399658203125,2.846414604965521,1.4042454349751377,-2.279910068122708
949,409.554424,122.21495056152344,1.83710622787476,-45.58269500732422,3.178349903651646,0.8934840377496215,-1.9999346441152144
950,409.562757,26.1705207824707,25.9889030456543,-9.37571907043457,1.751091236970862,0.12978668115576938,-1.6158713126669122
951,409.57108999999997,-91.3159637451172,78.2802505493164,42.72760772705078,2.3497026793810782,-1.1256771671528714,-1.4666927104093592
952,409.57942299999996,-470.7915649414063,123.28895568847656,-5.02031087875366,1.7114701562998245,-0.39700997119047243,-0.6743266631145867
953,409.58775599999996,-363.25970458984375,129.3183135986328,27.57918930053711,0.7434451823331867,0.514061402301399,0.3801170173956418
954,409.596089,-317.7633056640625,23.46120834350586,9.61727905273438,-1.1030570828184785,0.654322273877202,2.6460892813546315
955,409.604422,-245.9434967041016,65.63845825195312,-85.29436492919922,-3.12250974226971,2.538210615819814,3.8328011181889745
956,409.612755,2.8358588218689,321.6136474609375,-162.38221740722656,-2.0474517588712735,4.643275202537069,0.6636108184347347
957,409.621088,185.63819885253903,385.6752014160156,-186.80702209472656,2.445367696333905,2.1117315486985806,-1.762825518238301
958,409.629421,106.52814483642578,244.90640258789065,-33.34945297241211,2.0724594349763827,-1.2470222979175807,1.0514441315008671
959,409.637754,-230.7001037597656,299.4002990722656,91.32791900634766,1.5518547564136733,2.693850069629903,2.24664104228117
960,409.64608699999997,117.06698608398438,168.87416076660156,75.3145751953125,2.033846718924386,2.287814276559012,3.1073066166469028
961,409.65441999999996,120.44034576416016,141.313232421875,29.62825393676758,2.0004210180165813,-1.3323926925659182,1.8142275907555407
962,409.662753,93.41883087158205,87.10686492919922,19.79664993286133,1.0701460741004163,-2.4813885591468026,0.6177635582125918
963,409.671086,-38.56412887573242,114.24342346191406,-5.20938730239868,0.5454414718005123,-2.6255662100655695,1.1830501167141663
964,409.679419,-90.70571899414062,123.43289947509766,12.38562488555908,0.810738826284603,-0.579754576391103,0.6149920152158153
965,409.687752,-92.57586669921876,95.66519927978516,42.08660888671875,0.6253685756605499,0.3477413800297949,1.128662654331752
966,409.696085,-50.61980819702148,84.73090362548828,41.83150482177734,0.7051020739029867,0.7845659158667735,1.3358501512177132
967,409.704418,-15.13134860992432,67.66742706298828,26.47737121582031,1.074884862315898,0.09815182004656123,1.3446259985164724
968,409.71275099999997,-18.37004470825195,50.65224838256836,23.34015655517578,0.8999290271681183,-0.31620256754816833,1.1328346875249122
969,409.72108399999996,-36.65317535400391,47.38567733764648,17.80314636230469,0.6568679031060662,-0.02077921312682449,1.1430563245500835
970,409.72941699999996,-33.29077529907227,39.10911560058594,15.81753349304199,0.4884759747252173,0.3199805775467235,1.1386879122987081
971,409.73775,-10.83450412750244,38.43001556396484,15.24035167694092,0.577187246205855,0.16988130248322755,1.0667217994222837
972,409.746083,-9.40520000457764,32.00320434570312,11.31846904754639,0.6496526757065132,-0.1550666288453704,1.015144854175801
973,409.754416,-12.76491355895996,23.32088088989258,6.36797189712524,0.655254782462606,-0.08739560842514081,0.9529574063359479
974,409.762749,-7.24678230285645,18.12945556640625,0.95685851573944,0.5363766027956591,0.06383511484885715,0.9983637868141643
975,409.771082,2.7027759552002,15.05971336364746,-0.00527653330937,0.41890051900124076,-0.07857164558099286,0.8685479845319478
976,409.779415,0.06778808683157,19.02116203308105,0.76111441850662,0.5023543688715724,-0.2952738927335153,0.9033529125914285
977,409.78774799999997,-11.95757484436035,16.11289596557617,0.33689138293266,0.49174853733607654,-0.17590929050834794,0.8023113620524499
978,409.79608099999996,-5.69624900817871,16.16973114013672,0.46140217781067,0.47515601527934176,-0.08721503676200408,0.8649319045397703
979,409.804414,-2.97478652000427,13.25890445709229,-0.12130904197693,0.48759071194395714,-0.1384705913310153,0.852246965680804
980,409.812747,-4.86680746078491,12.47502994537354,-0.07504972070456,0.4541601453508653,-0.15372116954959184,0.8557056894107744
981,409.82108,-4.75448942184448,13.1444845199585,1.13254642486572,0.4663161842190489,-0.13599253430658467,0.8395933618350908
982,409.829413,-2.63165736198425,11.76110744476318,1.82384884357452,0.46545447135458157,-0.16277904413184388,0.8259576680708908
983,409.837746,-3.56048130989075,11.03048992156982,3.05440831184387,0.47441331707701423,-0.16237775890194592,0.8170830473607897
984,409.846079,-3.3299024105072,10.73871898651123,3.82926487922668,0.4727172364993969,-0.15384467280640918,0.8110940213106111
985,409.85441199999997,-3.45991992950439,10.43365287780762,4.29067945480347,0.48448874025928773,-0.14194726943969693,0.8164586826246611
986,409.86274499999996,-3.02970337867737,10.06993103027344,3.83584761619568,0.49571908250146934,-0.11792035735383366,0.826169228067203
987,409.87107799999995,-2.54193139076233,8.66537380218506,3.02064871788025,0.4956577262099908,-0.09319035982599082,0.8419175050696551
988,409.879411,-0.59699106216431,7.74551582336426,1.65978991985321,0.48455715179443365,-0.08075330938611734,0.8468161797036927
989,409.887744,1.60010862350464,7.85660457611084,0.64159828424454,0.4874162771263898,-0.10714861811423775,0.8343399787435724
990,409.896077,2.11474990844727,7.45458889007568,0.19117186963558,0.4740399730448816,-0.12913691754243775,0.8221916276581427
991,409.90441,1.8473881483078,8.03359794616699,0.55824941396713,0.47591783562485096,-0.1375286189877255,0.8170501553282449
992,409.912743,2.03747177124023,8.6846866607666,1.03431570529938,0.47589224212023673,-0.1425312246595112,0.8093209169348887
993,409.92107599999997,2.31236386299133,9.35168170928955,1.80269157886505,0.4777797387570755,-0.14246121961243263,0.8024969392893265
994,409.92940899999996,3.96596741676331,9.67764854431152,2.26510548591614,0.4839383339395326,-0.12711096783073572,0.8049559106632153
995,409.93774199999996,2.66945171356201,9.90497493743896,2.42708992958069,0.48178843089512446,-0.1200812690112051,0.8173676899501255
996,409.946075,3.0438551902771,9.71676158905029,2.57718944549561,0.48462181675190813,-0.11872751372201122,0.8122370194415652
997,409.954408,3.34784460067749,10.73016166687012,2.83709669113159,0.48021029452888364,-0.1360337953178255,0.8018352547470408
998,409.962741,1.51043331623077,11.04065895080566,2.9147846698761,0.4809801919119694,-0.12226671588664183,0.8079299634816693
999,409.971074,2.03923916816711,11.95726490020752,3.4466392993927,0.4903263948401622,-0.1216322913461806,0.7957926575018438
1000,409.979407,0.7425183057785,12.78775405883789,3.39756202697754,0.49148827183003363,-0.11418082276169184,0.8117070003431672
1001,409.98774,-0.24876549839973,12.67984199523926,3.64245963096619,0.4906272401615061,-0.11848944790509283,0.8016779471416866
1002,409.99607299999997,-1.99050796031952,13.96757125854492,3.85790085792542,0.4845166692928387,-0.12682189746778877,0.8058305175936948
1003,410.00440599999996,-2.94973587989807,15.87532329559326,3.74204850196838,0.4967910902840755,-0.1260697720002153,0.8081593318861356
1004,410.01273899999995,-4.46174430847168,17.42257499694824,3.30975699424744,0.49914963391362444,-0.10983467102050815,0.8067810778715173
1005,410.021072,-3.69114089012146,19.48201560974121,2.9988260269165,0.5035007243253745,-0.11335113827063162,0.8165268022186898
1006,410.029405,-4.81137990951538,21.11259460449219,2.69829440116882,0.4827955304359908,-0.10656098930203163,0.8149357717864367
1007,410.037738,-4.00015163421631,25.27985382080078,2.38731217384338,0.49709894219223366,-0.10035374334880307,0.8169262749808173
1008,410.046071,-3.46491694450378,28.52797698974609,1.85166704654694,0.47833491344841117,-0.0962971302927755,0.8166016364584163
1009,410.054404,3.46984815597534,32.002685546875,1.2555980682373,0.48693170352857956,-0.09923157035088061,0.8050046648297989
1010,410.06273699999997,6.44128274917603,35.82764053344727,1.56030571460724,0.48683935282181734,-0.12113430062118877,0.8153834148329132
1011,410.07106999999996,11.09345245361328,40.98007202148438,2.1675181388855,0.4676502578112541,-0.13197229833018978,0.8078112894175
1012,410.07940299999996,15.83699417114258,46.45281600952148,3.01335453987122,0.48954525772406116,-0.14198339715295916,0.8161392017286653
1013,410.087736,17.18521118164062,51.38569641113281,4.59345102310181,0.49927643367222346,-0.1408152920859204,0.8166815310108417
1014,410.096069,20.19181251525879,58.21442031860352,6.14678430557251,0.47321699103530607,-0.12928117294700817,0.8049318255210408
1015,410.104402,27.30015754699707,68.8736343383789,7.5387282371521,0.45023952211652446,-0.09496813525958979,0.8180674728082152
1016,410.112735,41.46499633789062,75.67371368408203,10.69840717315674,0.5026833378538795,-0.08750326779423877,0.8206156321934296
1017,410.121068,49.60880661010742,80.32223510742188,12.02565956115723,0.5206849137131051,-0.1098771484530704,0.8147275204561193
1018,410.129401,46.11789321899414,86.88587951660156,12.76595115661621,0.5242795846900162,-0.12045142601947346,0.8192478880590325
1019,410.13773399999997,32.72988891601562,93.90827941894533,11.09542846679688,0.5360359075118081,-0.1681970090282204,0.8289764365371387
1020,410.14606699999996,13.96017169952393,107.12120056152344,8.39350128173828,0.5041112705152857,-0.1739919672206959,0.7766150455085602
1021,410.1544,-3.65030241012573,116.2137451171875,3.69959807395935,0.7356637351366938,-0.22289256660305712,0.8176033837454663
1022,410.162733,-17.50529479980469,110.93617248535156,3.17941498756409,0.6212181461100673,-0.16200151978706834,0.7574632703041541
1023,410.171066,-12.79762840270996,121.24330139160156,7.91097021102905,0.6043217133502572,-0.19214277364769794,0.8011908920443785
1024,410.179399,-14.95297145843506,129.17080688476562,16.2564640045166,0.6063718211894132,-0.23215031137271833,0.8321817553773214
1025,410.187732,-12.69297790527344,140.38990783691406,24.24503707885742,0.5519353126992979,-0.18504619598388672,0.834661697854801
1026,410.196065,-1.13737607002258,161.69216918945312,30.05104637145996,0.5693014787167917,-0.19713304480727856,0.8244738286855265
1027,410.20439799999997,15.73892498016357,185.54187011718753,38.03769683837891,0.5576241259672203,-0.2163158630838204,0.834878220850107
1028,410.21273099999996,26.94766235351562,216.6316680908203,50.35290908813477,0.55553066487215,-0.27605664973356325,0.9040476351368183
1029,410.22106399999996,41.45950317382812,261.5964660644531,66.67741394042969,0.4668254268412683,-0.3124520973283418,0.9794678979990428
1030,410.229397,46.01005172729492,322.8460998535156,90.78752136230467,0.4357953460849061,-0.4218393442582112,1.1538161063680845
1031,410.23773,33.3373908996582,386.7893371582031,124.55179595947266,0.6413443234502051,-0.45568840844290615,1.390158692184759
1032,410.246063,-6.57845306396484,446.0201416015625,163.12864685058594,0.9346387824233693,-0.5421787378739337,1.6669100158068602
1033,410.254396,-57.83489990234375,465.73480224609375,198.3398284912109,1.4642124759907622,-0.5950435813592408,1.7170939153554488
1034,410.262729,-147.9424591064453,459.6986083984375,214.65830993652344,1.3591818906822979,-0.3916707817389041,1.491449901035854
1035,410.271062,-197.145263671875,460.7493286132813,192.20632934570312,1.4530598387426255,-0.2765737990943755,1.5615135309647539
1036,410.27939499999997,-183.22628784179688,468.0437927246094,170.29776000976562,1.8458928867262232,-0.33073503143933364,1.904428832385005
1037,410.28772799999996,-153.21554565429688,455.9429931640625,167.00875854492188,1.90014547231246,-0.4359448685938,1.7938512685347572
1038,410.296061,-161.7999725341797,438.3630065917969,173.4132537841797,1.291704372483857,-0.3786801075448795,1.4701242836154234
1039,410.304394,-171.0671844482422,424.62710571289057,151.62240600585938,1.1154114470189926,-0.34415220727725915,1.5457301237145245
1040,410.312727,-141.1156768798828,574.6881103515625,117.41950225830078,1.8051951272147042,-0.15255733412139286,1.1354660501285478
1041,410.32106,-229.60290527343753,650.1564331054688,161.4395294189453,1.5340885824086714,-0.8553889332985387,3.0638546846350847
1042,410.329393,-167.43902587890625,215.91964721679688,133.22999572753906,0.9769181815945366,-0.18987606982795507,3.1530716954445355
1043,410.337726,-68.38054656982422,180.60806274414065,103.21700286865234,1.386701136219258,-0.25328312601361935,2.6322518562784
1044,410.34605899999997,-132.3762664794922,117.10591888427734,59.87345886230469,1.6600377219063898,0.22243059411340815,2.9385288394227316
1045,410.35439199999996,-32.03196334838867,32.06830596923828,49.98160552978516,0.798990872441506,-0.11395466570951529,2.6669218102279975
1046,410.36272499999995,-61.06312942504883,-64.79640197753906,58.62254333496094,0.8353094178803112,-0.38189306551096425,1.727855643447564
1047,410.371058,-62.80940246582031,-92.75408172607422,83.58743286132812,0.6155899592808316,-0.24542947204745508,1.261055712797204
1048,410.379391,-8.64693069458008,-140.0535888671875,86.1938705444336,0.18828583006956123,0.4865862885299989,1.3534324023188375
1049,410.387724,82.98251342773438,-145.98049926757812,50.39815139770508,-0.022541497434888775,0.35065227625321327,1.0892535229118498
1050,410.396057,106.46666717529295,-168.65415954589844,34.03556442260742,2.736871948061224e-05,-0.2807132808529602,0.9818262956580337
1051,410.40439,94.26383209228516,-168.68280029296875,31.78482246398926,-0.00918673389420204,-0.3743618605088214,0.8621307295195908
1052,410.41272299999997,90.92377471923828,-174.14169311523438,29.73069000244141,0.09860060044697347,-0.4350417974043867,0.8598893029349194
1053,410.42105599999996,71.92386627197266,-181.7720642089844,27.6701545715332,0.16382735602709692,-0.47895772116524793,0.8103581837245397
1054,410.42938899999996,60.85332489013672,-191.0935821533203,23.74208641052246,0.2224378196560602,-0.4621343709984602,0.7994655686981826
1055,410.437722,52.42267227172852,-202.0334014892578,16.04777145385742,0.2990274769919255,-0.4516810300398847,0.8141522991413969
1056,410.446055,43.34182739257812,-216.5045928955078,5.44252824783325,0.40941228671949687,-0.4691971078210949,0.8079636340238612
1057,410.454388,32.56761169433594,-232.33763122558597,-6.76873779296875,0.5114815186481082,-0.4799547000807163,0.7837022080713387
1058,410.462721,22.58160209655762,-249.83924865722656,-19.24007987976074,0.5960213894746744,-0.4549263934699857,0.7459343696127132
1059,410.471054,15.05183792114258,-266.07669067382807,-29.66374778747559,0.6275618806177254,-0.4299971035548622,0.7282281408504561
1060,410.479387,11.28648948669434,-279.76126098632807,-37.72686004638672,0.643707878735601,-0.3780224371929561,0.7107828587901835
1061,410.48771999999997,11.9097957611084,-290.2304077148437,-44.67185974121094,0.6486426567544745,-0.31793319449132756,0.6825196986295734
1062,410.49605299999996,17.04179573059082,-297.8976135253906,-50.32890701293945,0.6846469275805418,-0.2605007619273908,0.6778268424832091
1063,410.50438599999995,24.69247817993164,-303.8874816894531,-53.07015991210938,0.7397084333458723,-0.22447593358098264,0.6890745552218693
1064,410.512719,33.02519607543945,-306.9587707519531,-49.77592468261719,0.8064114804170571,-0.20189177016822651,0.7186570946051152
1065,410.521052,38.74274063110352,-302.856201171875,-44.53372573852539,0.9288057015866652,-0.13974862439291835,0.7716950591729612
1066,410.529385,56.40691757202148,-302.5456237792969,-41.65451431274414,1.0067178765121774,0.010787706289972448,0.7651598112923754
1067,410.537718,77.77850341796875,-301.5630798339844,-40.30922698974609,1.026466914585658,-0.007965415716171428,0.8232367768579602
1068,410.546051,92.61780548095705,-301.5336303710937,-35.97101211547852,1.125951689116809,-0.09461300105464693,0.8962123248041887
1069,410.55438399999997,85.75735473632812,-275.2458190917969,-31.43786239624023,1.9056294888866194,0.34365082273677855,0.6343155491108796
1070,410.56271699999996,153.14308166503906,-342.4384460449219,-31.24714660644531,0.9486555566593091,-0.6731452747267122,1.5567119754090601
1071,410.57104999999996,120.6650619506836,-330.6690368652344,-30.84218406677246,1.0902241298130582,-0.1628233705248153,0.7920704082566867
1072,410.579383,112.89421081542967,-323.5783996582031,-28.86495018005371,1.1535236786822887,-0.3771158627101357,0.9304160487895112
1073,410.587716,120.91591644287108,-320.134521484375,-32.02909088134766,1.4646838635814428,-0.2489655358450755,1.2016484202170856
1074,410.596049,126.87785339355467,-318.12939453125,-38.39752960205078,1.5975128874486806,-0.14451541462723058,1.3009615333712827
1075,410.604382,137.1945343017578,-314.2303771972656,-43.91090393066406,1.7651799260353551,-0.15940992199644793,1.4804539388539835
1076,410.612715,144.55303955078125,-312.7663879394531,-49.88612747192383,2.0250024600904815,-0.13706858060797855,1.6661243049465875
1077,410.621048,153.15597534179688,-318.4250793457031,-55.96949768066406,2.312039745097257,-0.036639124155044896,1.7583346853450856
1078,410.62938099999997,168.10435485839844,-326.86749267578125,-69.78550720214844,2.57085099512217,0.26389119576434694,1.7273883430325254
1079,410.63771399999996,198.58773803710935,-333.87942504882807,-87.53311920166016,2.883385249546596,0.4903207993020816,1.750371699430505
1080,410.64604699999995,223.9288024902344,-343.4674987792969,-103.05043029785156,3.1471036404979467,0.6968737621696632,1.6402086919667764
1081,410.65438,234.36993408203125,-294.0648803710937,-122.69855499267578,3.3365183460469154,0.784164010262003,1.2364874080735806
1082,410.662713,236.3902282714844,-293.1709899902344,-115.41920471191406,3.4168149987045595,0.3178307961444469,0.9681923535405376
1083,410.671046,181.19679260253903,-310.51806640625,-97.16271209716795,4.00444186463648,0.9820238424807184,-0.07222858010506122
1084,410.679379,218.06602478027344,-305.5129089355469,-92.10558319091795,3.4717540351711964,0.6851732001012683,-0.062394428009889785
1085,410.687712,172.2908477783203,-295.2892761230469,-95.59503173828124,3.567155331981425,1.3254331082713846,-0.6698423988965091
1086,410.69604499999997,215.381103515625,-267.98016357421875,-100.59406280517578,3.0804963014563733,1.7219909356564886,-1.1040073511551838
1087,410.70437799999996,237.98069763183597,-194.38972473144528,-102.90586090087892,2.8258701246611926,1.8861032991993183,-1.6165260392792367
1088,410.71271099999996,254.59713745117188,-113.38150787353516,-87.44185638427734,2.5860788384262396,1.7888581022924306,-2.126502017585599
