,timestamp,GyrY,GyrX,GyrZ,AccY,AccX,AccZ
165,403.004686,-1.59704744815826,-0.442652374506,-0.3110080063343,0.9868132338231929,-0.1937277949586204,0.0636934200111704
166,403.013019,-1.60424506664276,-0.4799211025238,-0.37729766964912,0.9816620301227184,-0.1945708722484357,0.0655925030611
167,403.021352,-1.55852377414703,-0.31222474575043,-0.40398770570755,0.9818612312784,-0.19044152327946223,0.06557113053847347
168,403.029685,-1.56495296955109,-0.34045159816742,-0.38925951719284,0.9815583910260878,-0.18741689166244183,0.0648427131224653
169,403.03801799999997,-1.18189215660095,-0.35856083035469,-0.4676134288311,0.979429264457858,-0.1876322104006398,0.06639444098180612
170,403.04635099999996,-1.00341200828552,-0.36004650592804,-0.33703207969666,0.9793519000617826,-0.18891534026788162,0.06569083247865919
171,403.054684,-0.97101002931595,-0.33284416794777,-0.41679483652115,0.9780709597529192,-0.18864309301181734,0.06511714385480305
172,403.063017,-1.01539945602417,-0.31734755635262,-0.24630646407604,0.9756266340917468,-0.18820667753414183,0.06586599714901938
173,403.07135,-0.93363893032074,-0.33269050717354,-0.11001314222813,0.9754419326782224,-0.1825244937624255,0.0663163406508306
174,403.079683,-0.90520703792572,-0.32723462581635,0.09783356636763,0.9754821232386999,-0.18496594866927754,0.06556894098009387
175,403.088016,-0.76048672199249,-0.34401199221611,0.09493917226791,0.9762762030776662,-0.18882921763828775,0.06529961921730816
176,403.096349,-0.9270304441452,-0.39170569181442,0.22728794813156,0.9752331947793765,-0.1893926883230408,0.06529815951172142
177,403.10468199999997,-0.85118663311005,-0.25904956459999,0.22390682995319,0.9748835466345958,-0.18706800986309488,0.0665031951300949
178,403.11301499999996,-0.76002556085587,-0.2082052975893,0.39262780547142,0.9757609270056897,-0.1870957442692347,0.0666009954043796
179,403.12134799999995,-0.66046303510666,-0.2626867890358,0.48496708273888,0.9777381468792347,-0.1855491253794459,0.0644405459871102
180,403.129681,-0.43628725409508,-0.33240872621536,0.37743854522705,0.9795402020824193,-0.1875979073193612,0.06648202331698673
181,403.138014,-0.2930012345314,-0.33274173736572,0.4546911418438,0.9808452761903103,-0.18821684681639386,0.06487555649815815
182,403.146347,-0.13155469298363,-0.22864544391632,0.37198269367218,0.9796029694226326,-0.18883505646063367,0.0667688676289153
183,403.15468,0.03297832980752,-0.21599204838276,0.38176739215851,0.9808269812136274,-0.192020255692151,0.06435441727540918
184,403.163013,0.12662397325039,-0.17085973918438,0.26371133327484,0.9777126506883276,-0.19183486091847346,0.060994746733684685
185,403.17134599999997,0.02460247091949,-0.165173381567,0.19790837168694,0.978790010724749,-0.19069114509893878,0.06320192497603776
186,403.17967899999996,0.03238919749856,-0.1659674346447,0.15472277998924,0.9781455993652347,-0.1897889983897306,0.06403982639312755
187,403.18801199999996,0.39941561222076,-0.14496375620365,-0.04008628055453,0.977473940168108,-0.18601333608432652,0.06228520553939183
188,403.196345,0.55783957242966,0.04961477220058,-0.20212192833424,0.9766805415250817,-0.19064151510900407,0.061269937729348974
189,403.204678,0.57131266593933,-0.12065585702658,-0.20002156496048,0.979265096236248,-0.18773584949726937,0.06391795314088163
190,403.213011,0.72302573919296,0.1279943138361,-0.12976171076298,0.9778308868408204,-0.18596588348855814,0.06316325494221325
191,403.221344,0.96889680624008,0.1213346272707,-0.07843078672886,0.9773863578329286,-0.1865330034372755,0.060359774803628564
192,403.229677,1.22001874446869,0.13321962952614,-0.17435610294342,0.9779038721201366,-0.1888116646786122,0.06096701840965101
193,403.23801,1.14448249340057,0.3135182261467,-0.21198342740536,0.9766667229788641,-0.1903444528579714,0.06179691577444285
194,403.24634299999997,1.0618509054184,0.32507023215294,-0.07612550258636,0.9783220291137693,-0.19093857736003672,0.0640121041512
195,403.25467599999996,1.0346485376358,0.4812658727169,0.13581947982311,0.9800533372528692,-0.189653245770201,0.0632282118408051
196,403.26300899999995,1.18377482891083,0.52045565843582,0.12378080189228,0.979499330326002,-0.1870927640369959,0.06029847325110918
197,403.271342,1.05672800540924,0.65823459625244,0.10124026983976,0.9803212418848152,-0.1879380308851908,0.06115023578916327
198,403.279675,1.26814794540405,0.70580023527145,0.06263960897923,0.9792643177266019,-0.18922262045801938,0.060237883305063265
199,403.288008,0.97330260276794,0.77816051244736,-0.02868794463575,0.9812503931473714,-0.1955404816841592,0.06235308184915611
200,403.296341,1.05201494693756,0.92065238952637,0.13497421145439,0.9840917587280275,-0.19155167803472448,0.06577769104315305
201,403.304674,1.08856654167175,0.92088305950165,0.05213777720928,0.9831538492319529,-0.1931508463256214,0.06717979299778877
202,403.31300699999997,1.13961577415466,0.83020859956741,-0.08047992736101,0.9795547991382836,-0.19319536734600407,0.0662550330162051
203,403.32133999999996,1.1109277009964,0.76801717281342,-0.28175657987595,0.9806657324031907,-0.19159473934952143,0.06938622314102755
204,403.32967299999996,1.25341975688934,0.89831686019897,-0.28900539875031,0.9781914341206449,-0.19023642248036937,0.06600030222717551
205,403.338006,0.95199143886566,0.8810527920723,-0.52286332845688,0.9783184285066562,-0.1967761711198459,0.06329974349664183
206,403.346339,0.99002867937088,0.78510189056396,-0.71258801221848,0.9801905495779856,-0.19661921627667447,0.06936138989974082
207,403.354672,0.8919261097908,0.90292745828629,-0.64453101158142,0.9828568478019868,-0.1935705238459061,0.07414943709665407
208,403.363005,0.56946849822998,0.92482757568359,-0.58592557907104,0.9805978074365733,-0.19422522612980408,0.07033726390527245
209,403.371338,0.53537595272064,0.92941242456436,-0.5126177072525,0.9806941480052713,-0.1910582732181163,0.0747691064464806
210,403.379671,0.57945799827576,1.01345276832581,-0.37097096443176,0.9801380001768775,-0.18789059045363468,0.07763170466131122
211,403.38800399999997,0.58888405561447,0.88269209861755,-0.53362137079239,0.9798547199794224,-0.19167206725295713,0.07248017252707958
212,403.39633699999996,0.73911154270172,0.76353466510773,-0.52498930692673,0.9787169281317264,-0.19383839198521222,0.07553548228983979
213,403.40467,0.94566470384598,0.87172931432724,-0.54932290315628,0.9784388055606765,-0.19229396265380203,0.0753770981516153
214,403.413003,1.19402039051056,0.85169887542725,-0.71310025453568,0.9782286079562438,-0.19121885299682653,0.07263639143535101
215,403.421336,1.35190653800964,0.62672907114029,-0.73279756307602,0.9792198453630725,-0.1953061381164857,0.07366402416813163
216,403.429669,1.3751128911972,0.59432703256607,-0.66622620820999,0.9789767557260939,-0.19283772731313875,0.0752851306175704
217,403.438002,1.40469741821289,0.51254087686539,-0.74027705192566,0.976576902428452,-0.19193043514173877,0.07386692932673877
218,403.446335,1.37536919116974,0.40660035610199,-0.73241347074509,0.9801154233971419,-0.19576820791984081,0.07759885520351223
219,403.45466799999997,1.48430645465851,0.29925110936165,-0.94529330730438,0.981468959730499,-0.19474688841372143,0.07317021185038061
220,403.46300099999996,1.56327509880066,0.16280406713486,-1.09841525554657,0.9819351896947746,-0.20082060171633365,0.07315000101011632
221,403.47133399999996,1.2974249124527,-0.01141114067286,-1.18084180355072,0.9804493067215897,-0.19715771383168773,0.07393658769373979
222,403.479667,1.23682165145874,-0.01274308096617,-1.27123439311981,0.9821322499489296,-0.19586245624386528,0.0738450215787306
223,403.488,1.23715472221375,-0.01330659445375,-1.22441160678864,0.9821185287164184,-0.19578522565413467,0.07179887927308368
224,403.496333,1.26904451847076,-0.0162266176194,-1.1823273897171,0.982554591431909,-0.1987781816599316,0.07642440649927856
225,403.504666,1.15009188652039,-0.07780323177576,-1.34759044647217,0.9804837557734275,-0.20105151497587856,0.07608100467798673
226,403.512999,0.87181884050369,-0.22093556821346,-1.2584273815155,0.9841574454794122,-0.19854832668693673,0.07517564661648775
227,403.521332,0.92361086606979,-0.26929524540901,-1.31142318248749,0.9816342957165773,-0.19606891943483978,0.07461437157222245
228,403.52966499999997,0.6808648109436,-0.31032928824425,-1.42402350902557,0.9817867862934968,-0.19893297127315,0.07348597049713163
229,403.53799799999996,0.61798179149628,-0.38627547025681,-1.36631453037262,0.9830071974773795,-0.19757027528723878,0.07304293160535816
230,403.546331,0.46731889247894,-0.42367222905159,-1.38573002815247,0.9858179092407224,-0.1996920425064714,0.07382391058668775
231,403.554664,0.44703242182732,-0.61121970415115,-1.36713421344757,0.9827888255216631,-0.1987293180154296,0.07285094991022244
232,403.562997,0.47843542695045,-0.48143228888512,-1.51731026172638,0.9813620119678734,-0.19427486828395304,0.07387281072383062
233,403.57133,0.44021904468536,-0.59989821910858,-1.58411240577698,0.9836791486156234,-0.19629287476442348,0.07641158541854592
234,403.579663,0.47999796271324,-0.74123746156693,-1.43447399139404,0.9819417097130602,-0.19621998679881222,0.07623572738803162
235,403.587996,0.20556704699993,-0.63368332386017,-1.44233751296997,0.9820808683122907,-0.19670097195372244,0.07282103202780918
236,403.59632899999997,0.23942908644676,-0.78237408399582,-1.64256417751312,0.9826318585142795,-0.19398820643522346,0.07816703343877958
237,403.60466199999996,0.36831986904144,-0.81431490182877,-1.52973330020905,0.9804601085429284,-0.19922964426935916,0.07790010802599898
238,403.61299499999996,0.33258801698685,-0.72192430496216,-1.38616549968719,0.9817373509309735,-0.19911180953590202,0.07617488199350815
239,403.621328,0.26698994636536,-0.81385380029678,-1.42043733596802,0.9833625871307998,-0.19628495586161734,0.07567853951940713
240,403.629661,-0.04869265854359,-0.7971533536911,-1.29941010475159,0.9833917812425265,-0.19796369027118266,0.07673321938028163
241,403.637994,-0.18767549097538,-0.97378915548325,-1.22033882141113,0.9854771166431662,-0.19835709309091323,0.07716020151060407
242,403.646327,-0.13514071702957,-1.01303029060364,-1.2595032453537,0.9824496872571051,-0.1948449319722704,0.07650184388063366
243,403.65466,-0.07279565185308,-1.04550898075104,-1.09147357940674,0.9839443284638072,-0.1940157583781653,0.07720618223657448
244,403.662993,0.19739611446857,-1.12550222873688,-1.12087893486023,0.9835897173200336,-0.19664112402468265,0.07604495603211123
245,403.67132599999997,-0.13370631635189,-1.20242178440094,-0.87037175893784,0.9851793367035531,-0.20078541064748978,0.07894329878748674
246,403.67965899999996,-0.24018467962742,-1.10613787174225,-0.57611536979675,0.9826371134543906,-0.19976285039162142,0.08096069097518878
247,403.687992,-0.48743891716003,-1.19571101665497,-0.42578545212746,0.9841013927848969,-0.19417197120432958,0.07308161988550306
248,403.696325,-0.51113206148148,-1.20441961288452,-0.55549585819244,0.9845508847917827,-0.1961419047141561,0.07622375780222346
249,403.704658,-0.3939725458622,-1.25165247917175,-0.5302402973175,0.9834233108831907,-0.19799070698874385,0.07144961430101938
250,403.712991,-0.64558124542236,-1.26855766773224,-0.59284144639969,0.9867024908260417,-0.19796439579555,0.07683904803529082
251,403.721324,-0.55785238742828,-1.3655332326889,-0.64371126890182,0.9840494272660233,-0.19700389735552754,0.07584130277439081
252,403.729657,-0.76545578241348,-1.37634241580963,-0.49532803893089,0.982043013280752,-0.19813301611919795,0.07893745996514183
253,403.73798999999997,-0.72982639074326,-1.45697605609894,-0.51704889535904,0.98252821941765,-0.19690478334621528,0.07406595410132857
254,403.74632299999996,-0.5870526432991,-1.48307693004608,-0.57268303632736,0.9818186078752786,-0.19387483596801733,0.07837248091794999
255,403.75465599999995,-0.20619457960129,-1.43481981754303,-0.45431965589523,0.9826873273265601,-0.1958346123598061,0.07850536278315919
256,403.762989,-0.25342723727226,-1.32980132102966,-0.26085534691811,0.9814516378908744,-0.19459965277691324,0.07677407897248571
257,403.771322,-0.20122541487217,-1.44036519527435,-0.42791137099266,0.9809372376422488,-0.19424129505546733,0.07437788710302244
258,403.779655,-0.46507766842842,-1.32821333408356,-0.36602741479874,0.9834567867979714,-0.19405808984016834,0.07624200412205306
259,403.787988,-0.61200088262558,-1.44150495529175,-0.21193216741085,0.9833137356505102,-0.19547406507998058,0.07381004338361734
260,403.796321,-0.80382591485977,-1.41158759593964,-0.0504600442946,0.983789599671656,-0.19405298087061632,0.0710080229506204
261,403.80465399999997,-0.73384779691696,-1.3030344247818,0.00426477054134,0.9825795037405826,-0.1922611192781102,0.07447496360662041
262,403.81298699999996,-0.71650689840317,-1.18277561664581,0.02749687992036,0.9816342957165773,-0.1917589440637704,0.06963000005605305
263,403.82131999999996,-0.62596064805984,-1.20334386825562,0.22874791920185,0.9792643177266019,-0.19151956451182447,0.0675527599393102
264,403.829653,-0.57560306787491,-1.05101609230042,0.27170297503471,0.9782366849938213,-0.19343112196241122,0.06987305928249796
265,403.837986,-0.63715410232544,-0.96282637119293,0.36319708824158,0.9791403400654694,-0.1933793389067357,0.06946580142391019
266,403.846319,-0.78036326169968,-0.9745831489563,0.34939095377922,0.9773854820095764,-0.19135455695950201,0.06699146056661837
267,403.854652,-1.21183514595032,-0.79080104827881,0.47405540943146,0.9754324932487642,-0.19520911635184793,0.06851766790662449
268,403.862985,-1.34899914264679,-0.64139324426651,0.77753281593323,0.9759177966993683,-0.19339774336133672,0.0694852459187408
269,403.871318,-1.45178914070129,-0.46291324496269,0.98301035165787,0.9763874326433459,-0.19423571168159998,0.06759826017885816
270,403.87965099999997,-1.92775309085846,-0.53260964155197,1.03761994838715,0.9779501934440764,-0.19580917698996428,0.06840694923790101
271,403.88798399999996,-2.02339649200439,-0.35886824131012,1.01884460449219,0.9761836577434928,-0.19181843923062653,0.0709115060008306
272,403.89631699999995,-2.23092317581177,-0.20228840410709,1.23426032066345,0.9761710069617447,-0.1901059856220163,0.06943685059644693
273,403.90465,-2.18814730644226,-0.14155706763268,1.22980344295502,0.9781177676453876,-0.19317023608149284,0.06983572731212652
274,403.912983,-2.06922078132629,0.06774965673685,1.41056323051453,0.975338488209004,-0.19598288195473773,0.06912155418979897
275,403.921316,-2.16809129714966,0.04559334367514,1.42892861366272,0.9789189513848754,-0.19697329219506732,0.06916203669139284
276,403.929649,-2.2616856098175,0.02648511715233,1.35756719112396,0.9791735240391325,-0.19639583266511224,0.07041592987216225
277,403.937982,-2.25379657745361,0.12261534482241,1.25131952762604,0.9792957500535612,-0.19369434337226732,0.06880501095129489
278,403.94631499999997,-2.22436571121216,0.09661687910557,1.24340462684631,0.9785495485578264,-0.19714138945754692,0.07061512494573775
279,403.95464799999996,-2.05052208900452,0.12453641742468,1.19614636898041,0.9794617672355805,-0.1981887768725959,0.0745919407630449
280,403.96298099999996,-2.14885520935059,0.37237975001335,1.21440935134888,0.9794011407968949,-0.1999361782657857,0.07413692012125102
281,403.971314,-2.03612661361694,0.25524586439133,0.87064057588577,0.9800991720082806,-0.19929078160499997,0.07538847777308265
282,403.979647,-2.06448173522949,0.1454888433218,0.59772104024887,0.9789678028651642,-0.19835159486653878,0.0750036263952449
283,403.98798,-2.06281661987305,0.21298235654831,0.64974343776703,0.9771630228782182,-0.1961863892419,0.07570508791475918
284,403.996313,-1.79489171504974,0.22934985160828,0.50379359722137,0.9781999977267519,-0.19718790540889794,0.07860582093803264
285,404.004646,-1.88992059230804,0.24359136819839,0.46865081787109,0.9784614796541172,-0.19567039548134285,0.07671436484979081
286,404.012979,-1.79204869270325,0.22707018256187,0.46411710977554,0.9790977166623488,-0.19689805653630507,0.07830835726796326
287,404.02131199999997,-1.47302341461182,0.19356675446033,0.4342765212059,0.9820086615426202,-0.19380262919834693,0.07966150434649694
288,404.02964499999996,-1.64891636371613,0.09018772095442,0.55105179548264,0.9809490126006458,-0.19491483970564286,0.0819870221371551
289,404.037978,-1.60202944278717,0.18797005712986,0.39087322354317,0.9809255599975581,-0.19561565652185509,0.08127308621698469
290,404.046311,-1.12498998641968,0.1081048771739,0.43936097621918,0.9809787905946071,-0.19501789492003774,0.08135998735622448
291,404.054644,-0.97249549627304,-0.01643153093755,0.52605229616165,0.9767433088652937,-0.19364717055340203,0.08209420101983163
292,404.062977,-1.03517377376556,0.10791277885437,0.50381922721863,0.9747945045938294,-0.19459091887182142,0.08296353476388163
293,404.07131,-0.89662623405457,0.10704188793898,0.39772498607635,0.9770812793653836,-0.1929742097854612,0.08841643528062448
294,404.079643,-1.14915704727173,0.09551547467709,0.31850019097328,0.9779833774177397,-0.1943237562568816,0.08232918929080611
295,404.08797599999997,-1.46272647380829,0.11564826965332,0.20556703209877,0.9787577998881438,-0.19393620442371018,0.08453565592668469
296,404.09630899999996,-1.48821270465851,-0.14519427716732,0.22026960551739,0.9795927514835275,-0.19107360012677244,0.08711797850472551
297,404.10464199999996,-1.77383697032928,-0.08238818496466,0.33363819122314,0.9821472362596163,-0.1937448735139806,0.08452984143276632
298,404.112975,-1.61031556129456,-0.19214516878128,0.04916651919484,0.9802540954278437,-0.18968172219334795,0.08840110837196836
299,404.121308,-1.72665548324585,-0.27700510621071,0.18653564155102,0.9809109629416948,-0.18941553271546632,0.08770459160512857
300,404.129641,-1.37258994579315,-0.44879978895187,-0.01682855188847,0.9840319107989877,-0.1898189831753163,0.08698588123126938
301,404.137974,-1.19800329208374,-0.61959546804428,-0.02120858430862,0.9831619262695316,-0.18866133933164592,0.08700922435643674
302,404.146307,-0.77772510051727,-0.62305349111557,-0.06862054020166,0.9818926636053591,-0.18896642996340407,0.08616621396979489
303,404.15464,-0.35742104053497,-0.69953751564026,-0.25245389342308,0.9805096412191582,-0.18789573591582653,0.08496629340308061
304,404.16297299999997,-0.3175140619278,-1.03695392608643,-0.29033735394478,0.9811809111614612,-0.18846279504347854,0.08573192114732653
305,404.17130599999996,0.18466582894325,-1.25646793842316,-0.59197056293488,0.9825334743577601,-0.18688334494220915,0.08497139629052652
306,404.179639,0.28358796238899,-1.39691054821014,-0.57255488634109,0.9831444098024947,-0.18865477065650815,0.08645524784010306
307,404.187972,0.72148895263672,-1.51337862014771,-0.89124727249146,0.9801888952449878,-0.18521294301869895,0.08304175065488265
308,404.196305,0.56414073705673,-1.67182815074921,-0.85820490121841,0.9779521397181917,-0.18484071809418368,0.08483071108253673
309,404.204638,0.82804417610168,-1.81106734275818,-1.04357516765594,0.9809952366108795,-0.18589690023538977,0.0842336732514051
310,404.212971,0.93436884880066,-1.68133115768433,-1.07976806163788,0.9791320684004806,-0.18392188208443774,0.07921856885053673
311,404.221304,1.27388560771942,-1.6294881105423,-1.17454075813293,0.9778724397931774,-0.18217270471611838,0.0787761989904908
312,404.22963699999997,1.13521003723145,-1.7745668888092,-1.17661559581757,0.9784964152744836,-0.18422915011036123,0.0775968846009704
313,404.23796999999996,0.9311158657074,-1.81557524204254,-1.03688991069794,0.9789636183758172,-0.18577587847806937,0.07883599218057143
314,404.24630299999995,1.23874294757843,-1.66022515296936,-1.10968554019928,0.9793819699968611,-0.18181317923020307,0.07890274330061325
315,404.254636,1.16955876350403,-1.71378457546234,-0.93322902917862,0.9807117617860132,-0.18224511827741324,0.07831502325680816
316,404.262969,1.25439321994781,-1.54152882099152,-0.91358298063278,0.9810074981378051,-0.1834263850231561,0.07801596607480714
317,404.271302,1.15214121341705,-1.68133115768433,-0.94790595769882,0.9801631071129622,-0.18423676490783672,0.07557599520196734
318,404.279635,1.19399476051331,-1.5210884809494,-1.12846076488495,0.9784957340785438,-0.1843912990725765,0.07459324841596632
319,404.287968,1.31924843788147,-1.50254392623901,-0.97244447469711,0.9824259427129008,-0.18611097822383976,0.07516673024819795
320,404.29630099999997,1.51127827167511,-1.61442685127258,-0.99168086051941,0.9816235912089448,-0.1834366394549,0.07364727404652857
321,404.30463399999996,1.42457401752472,-1.42255055904388,-0.96739834547043,0.9797387220421612,-0.18495029332686427,0.07395690192981633
322,404.31296699999996,1.54106760025024,-1.38546133041382,-0.93755787611008,0.9809168990777459,-0.18494483159512856,0.07324114745976938
323,404.3213,1.57761919498444,-1.41025578975677,-0.84204244613647,0.9816843149613357,-0.18460652049706938,0.07640940194227244
324,404.329633,1.74131977558136,-1.38254117965698,-1.00876533985138,0.9804662393063918,-0.18490417879454896,0.07435552319701837
325,404.337966,1.67902588844299,-1.30265033245087,-1.10292327404022,0.9789049382112458,-0.18734436862322754,0.07230368195747856
326,404.346299,1.63619899749756,-1.33246529102325,-1.11324596405029,0.9791138707375041,-0.1898561205182755,0.07074457650281937
327,404.354632,1.64214146137238,-1.13631153106689,-1.07167398929596,0.9777221874314908,-0.18798953416396122,0.07236461858360102
328,404.362965,1.66498947143555,-1.004270195961,-0.86973142623901,0.9768228141628968,-0.1895981540485306,0.0697375438651255
329,404.37129799999997,1.62971842288971,-0.96922981739044,-0.87114012241364,0.9773161946510786,-0.19067188914941324,0.07048910369678468
330,404.37963099999996,1.4269562959671,-1.03449499607086,-0.83750867843628,0.9779647904999398,-0.1915442943573,0.07163415757977244
331,404.38796399999995,1.44204318523407,-0.83437103033066,-0.7290323972702,0.9750771035953448,-0.19226424548090712,0.07175839068938265
332,404.396297,1.04087293148041,-0.80283987522125,-0.53720742464066,0.9807985656115469,-0.19284356613548467,0.07467786876522754
333,404.40463,1.46217572689056,-0.87614768743515,-0.66676414012909,0.9838503234240469,-0.19407091092090203,0.07586454858585305
334,404.412963,1.87315630912781,-0.93926125764847,-0.64460784196854,0.9839405332292827,-0.19484210987480305,0.07800779780563061
335,404.421296,2.1631863117218,-0.75135517120361,-0.71704488992691,0.9769044603620254,-0.19406718867165715,0.07653512516800204
336,404.429629,2.26282572746277,-0.80714297294617,-0.58510595560074,0.9795443865717673,-0.19122208867754287,0.08088907416985917
337,404.43796199999997,2.59878206253052,-0.74172425270081,-0.70613330602646,0.9833342688424244,-0.19512897851515815,0.07613033664469795
338,404.44629499999996,2.37429881095886,-0.74789726734161,-0.67839300632477,0.9834696322071305,-0.19867985832447957,0.07960771419564082
339,404.45462799999996,2.29366517066956,-0.59989821910858,-0.87879884243011,0.9828792299543111,-0.19803842719720305,0.07714187004128265
340,404.462961,2.07233238220215,-0.63401633501053,-0.91955107450485,0.9830001908905653,-0.19855440879354694,0.07969473089490611
341,404.471294,2.16090655326843,-0.69687366485596,-1.18286526203156,0.9832811355590816,-0.19667860196561224,0.07932816232953775
342,404.479627,2.25242638587952,-0.46419396996498,-1.31037294864655,0.981506133566097,-0.19653686455317854,0.0778587253726255
343,404.48796,2.38603019714355,-0.31832093000412,-1.32177150249481,0.9827326755134428,-0.1947410860840153,0.07910730279221836
344,404.496293,2.48246765136719,-0.20546458661556,-1.36382985115051,0.9807985656115469,-0.19914294992174386,0.0785196861442255
345,404.504626,2.18416428565979,-0.22142226994038,-1.21939134597778,0.9819726554714908,-0.19978264156652958,0.07975676230021836
346,404.51295899999997,1.95381534099579,-0.20292876660824,-1.24843788146973,0.9803951029874837,-0.20162684576851936,0.07884023749098468
347,404.52129199999996,1.65366780757904,-0.24557647109032,-1.1110942363739,0.9800178177502693,-0.20100445163493263,0.07970472987817244
348,404.529625,1.46686315536499,-0.05188162997365,-1.04096245765686,0.9793557926100122,-0.19886547205399488,0.08540584116565918
349,404.537958,1.57060086727142,0.06626402586699,-0.93584179878235,0.9778688391860652,-0.19753447600773366,0.08517065826727448
350,404.546291,1.57574927806854,0.15701527893543,-0.96012407541275,0.9743880252448878,-0.19830477480985714,0.08576827389853367
351,404.554624,1.40736126899719,0.25163424015045,-0.80285257101059,0.9732063449158957,-0.19816075052533877,0.08034832015329489
352,404.562957,1.16154146194458,0.35380944609642,-0.71596908569336,0.9719633569522775,-0.1970702896312796,0.07893233274926939
353,404.57129,0.85048222541809,0.36864006519318,-0.52263283729553,0.9726304424052337,-0.19897822214632652,0.08560201343224999
354,404.57962299999997,0.51096552610397,0.52985602617264,-0.46769025921822,0.9742253167288641,-0.20034753546422857,0.08710998053453366
355,404.58795599999996,0.08605100959539,0.56791877746582,-0.34156581759453,0.973269112256108,-0.1982505345831112,0.08736175541975101
356,404.59628899999996,-0.40314242243767,0.76212590932846,-0.05776010081172,0.9677043253061723,-0.19931765235200202,0.08627058291921835
357,404.604622,-1.08371245861053,0.77711015939713,0.10646556317806,0.9729822314515407,-0.19875779443857652,0.0896667278542806
358,404.612955,-1.29438972473145,1.04882597923279,0.24342487752438,0.9721613903434907,-0.19997007992802857,0.09061796932804388
359,404.621288,-1.6275542974472,1.02892398834229,0.41334974765778,0.9752166514493978,-0.20119167104059285,0.08931721959795305
360,404.629621,-1.87319481372833,1.01995885372162,0.40538367629051,0.9756421069709621,-0.19973534710553265,0.0876814978463306
361,404.637954,-2.276362657547,0.90530943870544,0.65834981203079,0.9769627512717735,-0.20108108617821527,0.08950379430031326
362,404.646287,-2.16161108016968,1.07689929008484,0.59303361177444,0.9745453815070948,-0.20090131127104488,0.09041861003758979
363,404.65461999999997,-2.50952911376953,1.08619725704193,0.80609285831451,0.9762544048075774,-0.20228502701739898,0.0924715521384255
364,404.66295299999996,-2.48752665519714,1.18332648277283,0.62143975496292,0.9770158845551162,-0.20392944618147243,0.0893516504034704
365,404.671286,-2.90970015525818,1.14651882648468,0.82084661722183,0.9765330139471561,-0.2045301758513163,0.08729436567851429
366,404.679619,-3.26952910423279,1.15438234806061,0.83626645803452,0.9727471215384347,-0.20663363592965306,0.08532868356120815
367,404.687952,-3.68844938278198,1.12810206413269,0.85260808467865,0.9768181431050202,-0.20599068427572448,0.08637649672372041
368,404.696285,-4.11761665344238,1.20791614055634,0.88372957706451,0.9752990761581734,-0.20728588104248058,0.08610458398351836
369,404.704618,-4.22499179840088,1.18809068202972,0.69000911712646,0.9756888175497244,-0.20469178958814996,0.08183254271137448
370,404.712951,-4.2005295753479,1.29280173778534,0.47840988636017,0.9737503285310704,-0.20378874272716327,0.08006098319073163
371,404.72128399999997,-4.0982780456543,1.47018039226532,0.58009850978851,0.9726164292316051,-0.20429219518388977,0.08137254690637347
372,404.72961699999996,-4.53835582733154,1.58646893501282,0.78823977708817,0.9751470721497825,-0.20522762318046733,0.08397202710716122
373,404.73794999999996,-5.01626634597778,1.64538168907166,0.77740490436554,0.9767284198683133,-0.2061158297013265,0.08492579265516632
374,404.746283,-5.56207990646362,1.68298327922821,0.77768665552139,0.9773304024521183,-0.20433793262559488,0.07734647210763469
375,404.754616,-5.74627208709717,1.42873644828796,0.75125271081924,0.9790897369384765,-0.20062787192208467,0.07778479736678469
376,404.762949,-5.09333944320679,1.57074177265167,0.45356404781342,0.9751129150390623,-0.19916505229716427,0.07935223530749898
377,404.771282,-5.23949432373047,1.6469954252243,0.5164982676506,0.9717174452178335,-0.20308033544190102,0.08164206937867755
378,404.779615,-5.23045301437378,1.67542731761932,0.71167874336243,0.9726901930205674,-0.20240456474070612,0.07577031242604183
379,404.787948,-5.6386923789978,1.84442985057831,0.80867975950241,0.976379842174297,-0.20439116322264386,0.07671650575131836
380,404.79628099999996,-5.4337010383606,1.70475542545319,0.54139524698257,0.9800742596996072,-0.20477066234666427,0.07547166274518366
381,404.80461399999996,-5.76812171936035,1.79868292808533,0.2711139023304,0.9774604135630082,-0.20828952594679181,0.0740609363633755
382,404.812947,-5.91463422775269,2.0006000995636,0.44539314508438,0.9809309122513754,-0.2052085983509918,0.07588503312091428
383,404.82128,-5.92552042007446,2.06348299980164,0.29093930125237,0.9815131401529122,-0.20396910151656836,0.07389226130076836
384,404.829613,-5.86112689971924,2.1197829246521,0.1154305562377,0.9807061175910795,-0.2027084146227153,0.0789687949783949
385,404.837946,-5.96770715713501,2.13000297546387,0.04286542534828,0.9785226899750377,-0.20203752177102244,0.07758865551072754
386,404.846279,-5.92236948013306,2.24941635131836,0.09345352649689,0.9765857579756754,-0.20109171770056936,0.0781765945103704
387,404.854612,-5.82721376419067,2.28627562522888,0.01179535780102,0.9772873897941744,-0.20148980374238978,0.07482870500914897
388,404.86294499999997,-5.71410036087036,2.31509160995483,-0.30101850628853,0.9751970913945408,-0.2008443219321112,0.0788765111748051
389,404.87127799999996,-5.76996564865112,2.26557922363281,-0.39238446950912,0.9759256791095345,-0.20094721901173468,0.07698492128021836
390,404.87961099999995,-5.6563663482666,2.25156831741333,-0.49840179085732,0.9739320132197163,-0.19678449144168775,0.07337887068184082
391,404.887944,-5.35409212112427,2.1803092956543,-0.68341338634491,0.9735474294545704,-0.19642589043597752,0.07710802920010612
392,404.896277,-5.00550842285156,2.14283561706543,-0.50762289762497,0.9746730570890468,-0.19542977517964896,0.07888911329970101
393,404.90461,-4.75679445266724,2.25679349899292,-0.68833142518997,0.9759020318790357,-0.1942321840597663,0.07880075245487449
394,404.912943,-4.48284912109375,2.23179364204407,-0.86655515432358,0.975789829176299,-0.19700581930121633,0.07438611011115918
395,404.921276,-4.50749015808105,2.18366456031799,-0.90277361869812,0.970436991477499,-0.19521786242115202,0.07564107374269183
396,404.92960899999997,-5.04369926452637,2.284175157547,-0.80569583177567,0.9730561898679152,-0.19267696507123058,0.07293664679235307
397,404.93794199999996,-5.16231870651245,2.36055684089661,-0.87877321243286,0.9792113790706714,-0.19325396236108264,0.06934814915365102
398,404.94627499999996,-5.24377202987671,2.41104245185852,-0.95423269271851,0.9753945409035194,-0.19818810784086938,0.07002325690522448
399,404.954608,-5.49637985229492,2.49974465370178,-1.05318069458008,0.9762901189375898,-0.19697700228009896,0.0718830860390959
400,404.962941,-5.49166679382324,2.67023277282715,-0.95779317617416,0.9771131009471663,-0.19352365513237144,0.07163346421961836
401,404.971274,-5.80672168731689,2.60284161567688,-0.9027481675148,0.9799275106313274,-0.1968888238984714,0.07021324366939286
402,404.979607,-5.57373476028442,2.4257960319519,-0.97234201431274,0.9803882910280817,-0.18717386284653062,0.07404691102553368
403,404.98794,-5.82129669189453,2.05377507209778,-0.82831329107285,0.9838265788798427,-0.18788851037317347,0.07360281384721122
404,404.996273,-5.34366750717163,2.00113773345947,-1.01588618755341,0.983984032455756,-0.18904271174450304,0.07223044122968367
405,405.00460599999997,-5.02471923828125,1.92296290397644,-1.17720460891724,0.9882185410480111,-0.18724745633650816,0.07488894827511836
406,405.01293899999996,-4.16607809066772,1.68539118766785,-1.19042146205902,0.9884329231417909,-0.1870634239547102,0.07286181863473366
407,405.02127199999995,-3.28197717666626,1.61408090591431,-1.4214106798172,0.9880821072325418,-0.18614614496425713,0.07422848623626122
408,405.029605,-2.41124749183655,1.48055422306061,-1.45645117759705,0.9861768021875499,-0.18479798521314386,0.07629052716858571
409,405.037938,-1.61236476898193,1.41393136978149,-1.51795065402985,0.9841835255525552,-0.18300628175540815,0.0794832742944051
410,405.046271,-0.93240922689438,1.38288676738739,-1.64750742912292,0.984223326858209,-0.18389895254251937,0.07918157747813673
411,405.054604,-0.32970640063286,1.29848802089691,-1.89143180847168,0.9869141481360612,-0.1830100891541459,0.08129524941347041
412,405.062937,0.4551008939743,1.08947575092316,-2.08699655532837,0.9850236347743438,-0.18094454492841427,0.08058346047693367
413,405.07126999999997,1.50428557395935,0.91225093603134,-2.19444823265076,0.9853717258998325,-0.17907842081420303,0.08525829534141428
414,405.07960299999996,2.47147941589355,0.84206801652908,-2.28663396835327,0.9858673446032469,-0.17791418396696734,0.08382447520080918
415,405.08793599999996,3.02889585494995,0.73410391807556,-2.23773622512817,0.9833366043713633,-0.17520548129568264,0.08527767293307244
416,405.096269,3.73720669746399,0.8394809961319,-2.34342074394226,0.980932274643256,-0.17727776449553773,0.08031367647404591
417,405.104602,4.50002431869507,1.01760232448578,-2.29749417304993,0.977458661916305,-0.1743731814987806,0.0770616288087806
418,405.112935,4.8852367401123,1.14270234107971,-2.04726886749268,0.9776548463471081,-0.1754399951623408,0.07334017631958979
419,405.121268,5.15154790878296,1.08750355243683,-2.12621188163757,0.9738823832297816,-0.17629114948973368,0.073088565651251
420,405.129601,5.20702791213989,1.32328259944916,-2.2700617313385,0.9698676089851223,-0.17435588398758264,0.06823816469737448
421,405.137934,5.9208197593689,1.64766120910645,-2.38801503181458,0.9681786323080255,-0.16864299774169897,0.06576093483944286
422,405.14626699999997,6.35539054870605,2.16675925254822,-2.27095794677734,0.9650700432913641,-0.16640316466895916,0.06699835159340714
423,405.15459999999996,6.65766525268555,2.41327095031738,-2.39723610877991,0.9631477083478652,-0.16774372178681018,0.0583879254302204
424,405.162933,7.14884424209595,2.82525086402893,-2.47428441047668,0.9611151169757448,-0.16497693499740304,0.05485037151648061
425,405.171266,7.35962390899658,3.54104018211365,-2.57668972015381,0.9597569095845123,-0.1637693327300398,0.05400971490509693
426,405.179599,7.40037536621094,4.10473251342773,-2.56475329399109,0.9623646249576489,-0.16216545688862652,0.04983947593338673
427,405.187932,7.19182395935059,4.65323543548584,-2.31373357772827,0.9683774442088846,-0.16329477027970915,0.04846624877988061
428,405.196265,7.14853668212891,5.35755109786987,-2.04824256896973,0.9714308563543825,-0.1623637213998908,0.04792977352531632
429,405.204598,6.87533617019653,5.72319412231445,-1.55831897258759,0.9752646271063357,-0.1615121413250357,0.05249564136777653
430,405.21293099999997,6.27916431427002,6.60150623321533,-1.21309030056,0.9802909773223255,-0.162385446684701,0.05418513502393469
431,405.22126399999996,5.60430479049683,7.00997543334961,-0.88937747478485,0.9809199158026245,-0.16048147970316326,0.05295772333534387
432,405.22959699999996,5.05108880996704,7.40515279769897,-0.42176401615143,0.9833737782069613,-0.15546714772983466,0.05157967003024388
433,405.23793,4.69246435165405,7.88296127319336,0.35722899436951,0.9863633525614837,-0.14824408657696733,0.0488170920586102
434,405.246263,4.83797788619995,8.3684778213501,0.97770810127258,0.9855107871853571,-0.14556950452376427,0.046499170819107136
435,405.254596,5.64772176742554,8.6846866607666,1.44852364063263,0.9891892452629244,-0.13982963805296017,0.046999563976210204
436,405.262929,6.68220329284668,9.3079833984375,1.63727474212646,0.9921530314854214,-0.13339510985783162,0.046964540165297955
437,405.271262,7.88702011108398,9.33928298950195,2.00345587730408,0.9987910912961377,-0.13115618910108262,0.05697979002582755
438,405.279595,9.34275436401367,9.37821674346924,2.01518726348877,1.0104766183969927,-0.13888125516930405,0.05944690534046734
439,405.28792799999997,10.3289041519165,9.37335205078125,2.26251864433289,1.0247245126841018,-0.13306256459683774,0.05965711510911326
440,405.29626099999996,11.39404678344727,9.23646926879883,2.43597841262817,1.0305096178638693,-0.12844647680010102,0.05547695622152244
441,405.304594,12.93418121337891,8.85612392425537,2.54360938072205,1.030112091375857,-0.1268660170691357,0.06402633628066734
442,405.312927,14.69961738586426,8.55036735534668,2.93804335594177,1.0241393653713928,-0.12044556286870202,0.061641420636858166
443,405.32126,16.83776664733887,7.92166614532471,3.13752722740173,1.0166686894942305,-0.11108507915418979,0.06875927959169693
444,405.329593,18.80276489257812,7.4426794052124,3.48498439788818,1.0070032002974532,-0.1134067165608306,0.06956141213981427
445,405.337926,20.46041870117188,6.87629890441895,3.87852215766907,0.9992886562736663,-0.12072068087908672,0.07054806363825918
446,405.346259,22.30971527099609,6.31800985336304,4.15003299713135,0.9971082453825041,-0.1241994755608694,0.07329490111798673
447,405.35459199999997,23.89416313171387,5.72245407104492,4.51549768447876,0.9894169593343929,-0.11961480792687856,0.07274354598960102
448,405.36292499999996,26.06735801696777,5.06701183319092,4.81252145767212,0.9817863970386734,-0.11100186377155509,0.07322115557534388
449,405.37125799999995,28.17007827758789,4.30588340759277,5.18495178222656,0.9706256827529591,-0.10245952070975817,0.0772784619915245
450,405.379591,30.01951217651367,3.64437079429626,5.72520923614502,0.9653306493953786,-0.10373909862673977,0.07048910369678468
451,405.387924,31.66607284545898,2.92102408409119,6.24205350875854,0.9579602066351438,-0.10227228913988368,0.07189274442439184
452,405.396257,33.32736968994141,2.22188329696655,6.93240976333618,0.9590908945823203,-0.10313100960789896,0.06947005281642958
453,405.40459,34.89811706542969,1.58431911468506,7.84732675552368,0.9566358644135142,-0.0960648363950306,0.06325308157473164
454,405.412923,36.75832366943359,0.70090866088867,8.84899806976318,0.958339048891651,-0.09485298881725408,0.06509173889549387
455,405.42125599999997,38.63330078125,0.19244003295898,10.28142833709717,0.9642883222930285,-0.09265376597034693,0.06484341864683163
456,405.42958899999996,39.91532135009766,-0.19844657182693,12.14248275756836,0.968532367628448,-0.09149867052934592,0.059919187000819385
457,405.43792199999996,41.06072235107422,-0.66311520338058,13.86169052124023,0.9709717302906263,-0.0907891927933204,0.05549937486648571
458,405.446255,42.15809631347656,-0.88070863485336,15.27549839019775,0.9798088852240112,-0.09632634873292856,0.050238249253253056
459,405.454588,42.7561149597168,-0.98677748441696,17.02300834655762,0.99091860712791,-0.0997967318612704,0.05209330393343571
460,405.462921,42.44406127929688,-1.26863706111908,18.64585494995117,0.9932783671787806,-0.10147372070623877,0.05287321854610816
461,405.471254,41.66018676757812,-1.34345638751984,19.78576469421387,0.9907808109205591,-0.09815065228209183,0.04993669232543673
462,405.479587,41.08319473266602,-1.32985508441925,20.7059326171875,0.9931235410729234,-0.09447456622610305,0.04906716699502857
463,405.48792,39.9207649230957,-1.3575439453125,21.73982429504395,0.993351449771803,-0.10238283750962245,0.0402582756110602
464,405.49625299999997,38.48464584350586,-1.21658861637115,22.36768341064453,0.9975741834056622,-0.1128905768297153,0.04064933681974592
465,405.50458599999996,35.71071243286133,-1.30657112598419,23.37554740905762,1.0031833454054222,-0.12296821389879489,0.04062147164831326
466,405.51291899999995,31.85586547851562,-1.15670192241669,24.44919395446777,1.0055865073690613,-0.12748206148342245,0.037159025669097956
467,405.521252,28.04007530212402,-0.77235978841782,25.00178909301758,1.008057399671905,-0.11960462648041427,0.03126427227137041
468,405.529585,24.90055847167969,-0.2382510304451,25.43778991699219,1.0016170813112846,-0.11059177165128775,0.01880410830585306
469,405.537918,22.06493186950684,0.73902267217636,25.65218353271484,0.9995727149807673,-0.11703328210480408,0.01610836356270102
470,405.546251,19.0147590637207,1.65478372573853,25.65671539306641,1.0025454540641938,-0.1284450414229408,0.013362718175868366
471,405.554584,16.00144195556641,2.33663439750671,25.35822677612305,1.0075215904080144,-0.13772895141523672,0.010588055818664285
472,405.56291699999997,13.30251884460449,2.90811395645142,24.91074371337891,1.010362761361258,-0.13814628124237038,0.01876139367113265
473,405.57124999999996,10.69660091400146,3.49032640457153,24.62155914306641,1.0094692269150092,-0.13449074054250917,0.01852329440262857
474,405.57958299999996,9.13600063323975,3.96052670478821,24.24953460693359,1.009088730325504,-0.12535736268880407,0.025118467759113264
475,405.587916,8.12270069122314,4.22002458572388,23.90443420410156,1.0067484330157845,-0.12359268811284285,0.021371687857472448
476,405.596249,7.55104160308838,4.4787278175354,23.42391014099121,1.003131574513961,-0.13135935579027447,0.020272444401468366
477,405.604582,7.28393650054932,4.59381294250488,22.94684410095215,1.000693476929956,-0.13670888482307858,0.02443856882805714
478,405.612915,7.19952392578125,4.44316291809082,22.71645736694336,0.9904939301159918,-0.14095734576789692,0.026540756225585715
479,405.621248,7.0858097076416,4.46433258056641,22.7289924621582,0.9875045503888816,-0.14534304336625714,0.027685919586492854
480,405.629581,7.5208683013916,4.1062970161438,22.50912284851074,0.9839263254282427,-0.14609451196631631,0.028461680120351017
481,405.63791399999997,7.8468861579895,3.86160373687744,22.56114387512207,0.9854600867446591,-0.14527060547653467,0.029344914519057137
482,405.64624699999996,8.32039165496826,3.43691992759705,22.46573066711426,0.9802998328695489,-0.14678366330205203,0.02778407870506734
483,405.65458,8.48683071136475,3.09909319877625,22.39585494995117,0.9788418789299163,-0.14849200540659388,0.029769977744744894
484,405.662913,8.43813991546631,2.6819908618927,22.27436637878418,0.9815585856535,-0.1527501490651347,0.029230491847408162
485,405.671246,8.45299625396729,2.42748761177063,22.06153869628906,0.9853005895809255,-0.15660007389224284,0.023389256426266325
486,405.679579,8.62824821472168,2.16343069076538,21.57499504089355,0.9860239223558072,-0.15422048617382447,0.018673084524213266
487,405.687912,8.95979881286621,1.95403409004211,21.40839767456055,0.9899247422510264,-0.15634305623112854,0.014375519691681632
488,405.696245,9.13551330566406,1.79983615875244,21.07474708557129,0.993706547484106,-0.16327295984540713,0.014856700994530613
489,405.70457799999997,8.87509250640869,1.57033240795135,20.61007881164551,0.9982965430434867,-0.17207116496806224,0.015094740962495917
490,405.71291099999996,8.48849678039551,1.24113833904266,20.02023506164551,0.9963393697933274,-0.17431680037050815,0.017088081459610202
491,405.72124399999996,7.9650182723999,1.20476603507996,19.60456848144531,0.9948742146394693,-0.1739317422010459,0.01507634563105408
492,405.729577,7.35995817184448,1.20607233047485,18.78532028198242,0.992463754147899,-0.17602452210017652,0.011176454017357142
493,405.73791,6.88253402709961,1.35501909255981,17.96048927307129,0.9923152534329163,-0.17802828428696632,0.011569554252283672
494,405.746243,6.40080738067627,1.33357989788055,17.20981216430664,0.9912553125498244,-0.17640668518689184,0.01173347462805
495,405.754576,5.87192249298096,1.64433157444,16.43561744689941,0.9843799046107704,-0.1799999451150704,0.013024518076254082
496,405.762909,5.00162839889526,1.69955623149872,15.59426975250244,0.9818786504317306,-0.18712862413756734,0.014156545607411223
497,405.771242,3.98013305664062,1.80334496498108,14.66355037689209,0.9797308396319948,-0.18982748596035712,0.01398356441332347
498,405.77957499999997,3.19702887535095,1.8843629360199,13.52069568634033,0.9789207030315786,-0.19013633533399896,0.018375979698433673
499,405.78790799999996,2.5123085975647,1.87783122062683,12.29100608825684,0.9779491229933133,-0.18978466792982449,0.016794431270385712
500,405.796241,1.66288900375366,1.93635952472687,11.23090839385986,0.9745845989305142,-0.1913751023156306,0.017056524449465305
501,405.804574,0.92079341411591,1.88984394073486,10.00601005554199,0.9729075918392255,-0.1904053590735612,0.01958305890462857
502,405.812907,0.00085807702271,2.06614708900452,8.90418815612793,0.9735696169794825,-0.19456774604563776,0.016936352666543874
503,405.82124,-1.10102796554565,1.90708255767822,7.65582656860352,0.9730979374476836,-0.1982975371029908,0.014414924139879591
504,405.829573,-2.2939600944519,1.96888959407806,6.59665250778198,0.9719813599878427,-0.19962797359544387,0.01576573264842143
505,405.837906,-3.55471777915955,1.80608534812927,5.42843770980835,0.9721937958075071,-0.20149923100763467,0.018290247844189794
506,405.84623899999997,-4.5465521812439,1.72680914402008,4.17065048217773,0.9703606975321867,-0.20460213933672244,0.02121086935607755
507,405.85457199999996,-5.54686498641968,1.55250442028046,2.82387971878052,0.9689068307681958,-0.2050161604978602,0.019313439118618367
508,405.86290499999996,-6.29713106155396,1.51331460475922,1.46020340919495,0.9686447649585959,-0.2021858156943806,0.020548676957889794
509,405.871238,-7.13512754440308,1.22950899600983,0.09645040333271,0.9642158235822408,-0.2044526411562551,0.019865452635044897
510,405.879571,-7.95984125137329,1.22593557834625,-1.33146631717682,0.9648064204624723,-0.2028174181373755,0.022219506149389796
511,405.887904,-8.45136547088623,1.0355578660965,-2.69820332527161,0.9644904428598837,-0.2035136125525653,0.024705019836523467
512,405.896237,-8.98416805267334,0.79463040828705,-3.84141802787781,0.9658421302328305,-0.20351887965688875,0.027437897361055102
513,405.90457,-9.75103282928467,0.84068477153778,-5.32066583633423,0.9670186529354172,-0.20641876726734384,0.03194413927136632
514,405.912903,-10.95316123962402,0.86240583658218,-6.41613626480103,0.972350957442303,-0.21468181999362243,0.03856028221091428
515,405.92123599999996,-12.49990081787109,0.54540395736694,-7.33251047134399,0.9816283595805265,-0.2174705631878908,0.03899779550883265
516,405.92956899999996,-14.10824680328369,0.39066836237907,-8.23856449127197,0.9893540946804745,-0.2213489036170806,0.04159222452007959
517,405.937902,-16.11494255065918,0.25053286552429,-8.75622749328613,0.9979177981006857,-0.2243462144112102,0.04775211215019183
518,405.946235,-18.09787178039551,0.06977318972349,-9.34599685668945,1.0034111567905968,-0.2227982696221796,0.05028960047935918
519,405.954568,-19.91266822814941,-0.25843495130539,-9.67964839935303,1.0046187225653203,-0.22129589197587038,0.05513974598475816
520,405.962901,-21.47073364257812,-0.52551472187042,-9.98097610473633,0.9999254771641325,-0.21684994502943364,0.06280257993814897
521,405.971234,-22.11825942993164,-0.61798214912415,-10.47417640686035,0.9909838073107662,-0.20952448552968572,0.06478146022679897
522,405.979567,-22.14267349243164,-0.65384215116501,-11.13087844848633,0.9814655537507969,-0.20403071325652447,0.0676729849406653
523,405.98789999999997,-21.94239234924316,-0.5659596323967,-11.45832920074463,0.9764800752912245,-0.2016457002990102,0.06527765064823367
524,405.99623299999996,-22.01211547851562,-0.54718440771103,-11.95355415344238,0.9703808414692784,-0.20989634552780506,0.06712679352079082
525,406.00456599999995,-22.65517425537109,-0.30509132146835,-12.21762466430664,0.9732313545382754,-0.21968128729839695,0.06875721775755611
526,406.012899,-22.65329170227051,-0.12939037382603,-12.43228530883789,0.9790071176022896,-0.2223565870401806,0.0712147720006051
527,406.021232,-23.18793869018555,-0.15759167075157,-12.46619892120361,0.986171839188556,-0.22664092024978366,0.08075340061771633
528,406.029565,-24.6298713684082,-0.33222964406013,-12.11940956115723,0.9890243958453744,-0.23946754786432958,0.08330977084685307
529,406.037898,-26.85306167602539,-0.47405579686165,-11.71928977966309,0.9909153957756194,-0.2476451591569551,0.09011159137803672
530,406.046231,-29.88453674316406,-0.79530984163284,-10.99404716491699,0.992319243294852,-0.2518897883746092,0.09198942354747244
531,406.05456399999997,-33.20694732666016,-1.05777955055237,-9.99417304992676,0.9970513168646365,-0.2596458610223265,0.09220226686827958
532,406.06289699999996,-36.39436721801758,-1.50216150283813,-9.20341110229492,1.0035670533472174,-0.2682984118558918,0.09451607660371428
533,406.07122999999996,-39.58575057983398,-1.88412153720856,-8.2474365234375,1.0046832415522358,-0.2757836604604918,0.09750313904820611
534,406.079563,-42.57986831665039,-2.37571120262146,-7.46320629119873,1.0072091160988315,-0.27969679053948876,0.09903118926651631
535,406.087896,-45.43394470214844,-2.72965002059937,-6.73840045928955,1.0131882648078765,-0.27987163894030503,0.10209545797231225
536,406.096229,-48.68038940429688,-3.44882345199585,-6.11028814315796,1.0210313602369663,-0.2787801197596959,0.10273511312445816
537,406.104562,-49.37815093994141,-4.19670915603638,-6.09197425842285,1.0298393210586234,-0.2744589533124653,0.10047861507960713
538,406.112895,-49.39187240600586,-5.08161926269531,-6.51144742965698,1.0300802697940745,-0.262226790797954,0.1092872570972051
539,406.121228,-49.32469940185547,-5.6430721282959,-7.03058528900146,1.0274824804189255,-0.2652621025941806,0.1026953361472306
540,406.12956099999997,-48.6156120300293,-6.06993341445923,-7.89465618133545,1.026907259104203,-0.2689914314114316,0.10311731270381427
541,406.13789399999996,-47.4118766784668,-6.64740800857544,-9.23318386077881,1.0230867230162326,-0.26113437146556634,0.1057759231450602
542,406.14622699999995,-45.48252105712891,-6.99563217163086,-10.75310802459717,1.0194712269062898,-0.2464937920473061,0.0978968946301204
543,406.15456,-43.62601852416992,-7.16927146911621,-12.02746772766113,1.0153323776867929,-0.24912826868952548,0.10189016862791428
544,406.162893,-41.39856719970703,-7.18064308166504,-13.88352966308594,1.006170389603595,-0.2501415476507071,0.09824684688023162
545,406.171226,-38.42797470092773,-7.08620262145996,-16.08522796630859,1.0003526843324,-0.24143717726882652,0.09710372102503877
546,406.179559,-35.04209518432617,-6.8139476776123,-18.2492733001709,0.9910919228378612,-0.230933963036051,0.0993133503563551
547,406.187892,-31.45124626159668,-6.56359148025513,-20.55721473693848,0.9817642095137611,-0.22455422245726323,0.10182838658897245
548,406.19622499999997,-28.29359436035156,-6.18985414505005,-22.60901832580566,0.9664793403781193,-0.2189715054570408,0.10481265126442449
549,406.20455799999996,-25.69007873535156,-5.84654474258423,-24.45108985900879,0.9554691703952092,-0.2212183086239561,0.104595836328
550,406.21289099999996,-24.01688003540039,-5.47997951507568,-26.52172470092773,0.950216079244808,-0.23117882864815814,0.10308510186720916
551,406.221224,-23.27749824523926,-5.01441478729248,-28.08022499084473,0.9516818182809009,-0.2393604541311459,0.10537973472050305
552,406.229557,-23.94672966003418,-4.81462430953979,-29.17813491821289,0.9543740019506335,-0.24368123132355407,0.10459620125439692
553,406.23789,-25.34734535217285,-4.79149580001831,-29.81381034851074,0.9558609553745816,-0.24120437855623164,0.10622940501388264
554,406.246223,-27.24708366394043,-5.14863586425781,-30.19057464599609,0.9534013514616051,-0.2396182624661194,0.10782159104639183
555,406.254556,-29.53240966796875,-5.20954608917236,-30.07686805725098,0.9518048228049765,-0.23321183360352857,0.10650106838771224
556,406.262889,-31.7432804107666,-5.5478081703186,-29.95274353027344,0.9528051103864397,-0.23037443355638162,0.10613207914391326
557,406.27122199999997,-33.71567153930664,-5.77559757232666,-29.60196495056152,0.9505939483642581,-0.22529536364029895,0.10012638203951733
558,406.27955499999996,-35.19299697875977,-6.20233154296875,-29.07712745666504,0.9523456923815674,-0.22055728094918367,0.09686282702854693
559,406.287888,-36.04930877685547,-6.43662548065186,-28.41356468200684,0.9527750404513612,-0.20935637610299285,0.09364988730878265
560,406.296221,-36.08179092407227,-6.52094793319702,-27.51124954223633,0.9493174844858601,-0.19997082194503468,0.08768608983682143
561,406.304554,-35.56489181518555,-6.6648998260498,-26.44231224060059,0.9490991125301438,-0.19361478941781224,0.08814954636048265
562,406.312887,-34.56977081298828,-6.81666326522827,-25.38000869750977,0.9459710607723315,-0.18808799130576018,0.08302004969849897
563,406.32122,-33.32734680175781,-6.86988973617554,-24.39997863769531,0.9452557077213214,-0.18364844273547754,0.08672995226723774
564,406.329553,-31.89588737487793,-6.8514199256897,-23.12361526489258,0.9400131264511418,-0.18037883602842958,0.0832768119111357
565,406.33788599999997,-30.39883041381836,-6.93640661239624,-21.96400260925293,0.9379532872414101,-0.1738807133265908,0.08308673999747448
566,406.34621899999996,-28.85800361633301,-6.7070050239563,-20.80582618713379,0.9358080065980243,-0.1711623157773704,0.07865966582784897
567,406.35455199999996,-27.11996650695801,-6.61320447921753,-19.51719284057617,0.9367946702606825,-0.16819455185715,0.07542778642810101
568,406.362885,-25.35870552062988,-6.42335176467896,-18.16368675231934,0.9380882613512938,-0.16531205907159896,0.07362422286247755
569,406.371218,-23.71723365783691,-6.19064426422119,-16.87438774108887,0.9417030762652959,-0.16129241914165304,0.07241932713255611
570,406.379551,-21.6048526763916,-5.95983457565308,-15.48260974884033,0.9485089049047356,-0.1598678681315204,0.06974851598545
571,406.387884,-19.72735214233398,-5.69477796554565,-13.87564849853516,0.9542113907483162,-0.15558315783130916,0.06787851756932754
572,406.396217,-17.58779144287109,-5.3622784614563,-12.37221813201904,0.964206773407605,-0.15146622852403263,0.06502981088599388
573,406.40455,-15.21970081329346,-5.0455060005188,-10.56497859954834,0.9728689582980409,-0.14720171081776529,0.0618757398761051
574,406.41288299999997,-12.86208820343018,-4.92980623245239,-8.79864501953125,0.9768320589649439,-0.14530016451465813,0.06692713620711327
575,406.42121599999996,-9.99559879302979,-4.75852394104004,-6.92665433883667,0.9822889250151968,-0.14123149064122448,0.061145035588011216
576,406.429549,-7.00149726867676,-4.3993091583252,-4.98960161209106,0.9880081488161672,-0.13634681701660203,0.05726026029002959
577,406.437882,-3.64083313941956,-4.01033163070679,-3.22206592559814,0.9917114218887019,-0.13049224201513776,0.05233947111635815
578,406.446215,0.09565635025501,-3.66681838035583,-1.47135841846466,0.9942309710444234,-0.12595737467006732,0.049423864301370406
579,406.454548,4.46549606323242,-3.23649978637695,0.18072125315666,0.9979368715870133,-0.12031690198547958,0.043825957239890814
580,406.462881,8.75165557861328,-2.7693989276886,1.79954123497009,1.0009255701181836,-0.11537661357801837,0.040880596759368365
581,406.471214,13.19646739959717,-2.13693165779114,3.16772556304932,1.0087760613889112,-0.10952067618467347,0.040400113378252035
582,406.47954699999997,17.48757362365723,-1.447909116745,4.4848108291626,1.0186925226328325,-0.1106895840897857,0.04010039324663163
583,406.48787999999996,21.7232494354248,-0.95252984762192,5.70399761199951,1.0324464525495254,-0.10773329102263163,0.03842519862311224
584,406.49621299999995,25.56342124938965,-0.15305796265602,6.9567666053772,1.0401174973468388,-0.10832864411023163,0.04209392533010407
585,406.504546,29.19957542419434,0.21077971160412,8.15062236785889,1.0493347596149052,-0.10757335594722245,0.03706130750325306
586,406.512879,32.7243537902832,0.78612715005875,9.25290775299072,1.058156052414252,-0.1020125892697551,0.038135462269490814
587,406.521212,35.82482528686523,1.35750496387482,10.45529651641846,1.0654906837307672,-0.09543613511688877,0.040857667217448976
588,406.529545,38.93048095703125,1.86891973018646,11.51496028900146,1.0802658236756613,-0.09557808540305306,0.03867371349918571
589,406.537878,41.28307723999023,2.36988401412964,12.90315246582031,1.0970454313317122,-0.09718747771516122,0.04331972221938979
590,406.54621099999997,42.54136276245117,2.9005868434906,14.40008163452148,1.1192186511292743,-0.10045302765709999,0.04119506904057142
591,406.55454399999996,43.38719940185547,2.96562170982361,15.88378620147705,1.138455332541952,-0.10025397247197652,0.04136937613389898
592,406.56287699999996,43.43489837646484,3.23636507987976,17.64579582214355,1.1579081476951132,-0.09280090429344999,0.0412857106753755
593,406.57121,42.85268783569336,3.66914439201355,19.8776969909668,1.1835485575150468,-0.08272578521650714,0.03480315512540408
594,406.579543,41.99058151245117,4.07341337203979,22.29535102844238,1.2302754849803694,-0.07394132565478878,0.0284041312276102
595,406.587876,40.72342300415039,4.50268411636353,25.02201843261719,1.300310991248306,-0.055837977905662244,0.03129287033664897
596,406.596209,39.70597457885742,4.17402744293213,28.05188179016113,1.3714665782694917,-0.03415331548573979,0.023349731856463263
597,406.604542,40.03320693969727,3.26702666282654,31.15311813354492,1.4013058798653735,-0.01385393951620408,0.012782317947368367
598,406.612875,42.0198860168457,2.2293918132782,34.18232345581055,1.3846966685081008,0.012844581993259182,-0.0027090417487285715
599,406.62120799999997,44.33057403564453,2.08513307571411,38.02169799804688,1.3455448345262173,0.04141472127972857,-0.017057921813459182
600,406.62954099999996,47.69785690307617,2.80999374389648,42.43862152099609,1.3074317270395703,0.0688311396812908,-0.02718820255629898
601,406.63787399999995,51.20771789550781,3.36495590209961,46.90184783935547,1.277821015338508,0.08560475038022448,-0.028998134087542853
602,406.646207,53.66596603393555,3.60949850082397,51.18383407592773,1.2545123392221875,0.07757107214051835,-0.026535254960157142
603,406.65454,54.74655914306641,3.51664876937866,55.06779479980469,1.2354688255154356,0.05749112489272142,-0.01160985429067959
604,406.662873,54.05720901489258,2.94703650474548,58.51570129394531,1.2161056362852753,0.05467638069269591,-0.00690273484405204
605,406.671206,52.03017044067383,1.90271317958832,61.47933959960938,1.1887495858328683,0.05832772473899693,0.0011383657514744897
606,406.679539,49.33942413330078,0.81922459602356,63.79269790649414,1.155409131731306,0.06220217870206224,-0.004480944908394898
607,406.68787199999997,45.82769775390625,-0.31302052736282,65.7562484741211,1.1207700262264324,0.059944896065459184,-0.0051133095153744895
608,406.69620499999996,41.78364944458008,-1.60675132274628,67.10824584960938,1.0808531118898979,0.059629398949291826,-0.011942744711223469
609,406.70453799999996,37.63134002685547,-2.82051372528076,67.79449462890625,1.0332324553509142,0.06537023855715407,-0.018080970158382653
610,406.712871,34.56931304931641,-3.89808368682861,67.41297912597656,0.9854370233963948,0.07569894498708264,-0.030016205748733673
611,406.721204,33.07283020019531,-4.34774255752563,65.95011901855469,0.9412021053080651,0.08585481619348367,-0.04199562024097041
612,406.729537,33.34160614013672,-4.35143041610718,63.70109939575195,0.9093419872984592,0.10530724817392755,-0.04514982201615204
613,406.73787,34.47817230224609,-3.85392093658447,60.87969589233398,0.8917369647901886,0.11763430371576428,-0.05389588219778877
614,406.746203,36.54191207885742,-3.16351175308228,57.95332336425781,0.8920653985471143,0.12767605635584592,-0.058135925507059184
615,406.754536,40.66936492919922,-2.45709419250488,55.01908111572266,0.8955094279075153,0.14620108263833162,-0.0669543840447255
616,406.76286899999997,56.72365570068359,-1.15486240386963,53.79053115844727,0.8930870951438438,0.22635822393456323,-0.08326990263802653
617,406.77120199999996,63.30505752563477,1.94556665420532,52.45456695556641,0.8949378071999061,0.13869284367074797,-0.031036567323062245
618,406.779535,66.35872650146484,2.93038868904114,50.12409973144531,0.9931796910811438,0.030317108850089796,-0.02021696950708163
619,406.787868,44.91058349609375,1.41119575500488,46.29647445678711,1.0220152991158622,-0.04566593437778673,-0.03663991482890408
620,406.796201,55.6998291015625,-0.73537528514862,46.86753845214844,0.9762407808887713,0.15196604388100715,-0.030174209755293873
621,406.804534,73.94168853759766,2.12025737762451,43.43840026855469,0.9486877674959141,0.22985076417728367,-0.0009398248844908163
622,406.812867,95.6765594482422,5.47732543945312,44.54299545288086,0.994873922698352,0.1645718666971949,-0.012070947155660204
623,406.8212,104.08624267578124,5.31798553466797,44.78490447998047,1.0217087609427316,0.026876056680873464,0.016276536851513264
624,406.82953299999997,92.72233581542967,3.71683955192566,43.71146774291992,1.0251648572026468,-0.12287469542756327,0.024725700519522446
625,406.83786599999996,69.10552215576172,1.23522806167603,43.5291748046875,0.9969940964056521,-0.17139689046509385,0.051360927066024485
626,406.84619899999996,48.35702133178711,-2.88546681404114,42.73979949951172,0.9691301657229051,-0.10400648019751735,0.022122613629516324
627,406.854532,50.34881591796875,-1.65526258945465,45.02894592285156,0.871700462029905,0.06395979195224999,-0.027353994700373467
628,406.862865,44.13626098632812,0.60316604375839,44.20956802368164,0.8839694821104714,0.009351152242446939,-0.006250269254859183
629,406.871198,40.20331192016602,0.48467391729355,41.27649688720703,0.9083970712155713,-0.1113666077049408,-0.011333711445331632
630,406.879531,30.35819244384766,-0.29962313175201,39.23421096801758,0.8697605133056642,-0.11041995213956224,-0.002397138397304081
631,406.887864,23.84728813171387,0.20463247597218,36.5247917175293,0.8252300534929551,-0.05298580442156123,-0.009301844604161225
632,406.896197,22.84249114990234,1.3434944152832,34.41327667236328,0.8058201050271795,-0.008038905810336734,-0.009971046630217346
633,406.90452999999997,23.90967750549316,3.25933885574341,32.47552490234375,0.8121877300496,-0.012965830309049999,-0.006885149193053061
634,406.91286299999996,29.37833023071289,4.43595695495605,29.87614631652832,0.8172598663641479,-0.00636657851995204,-0.0007738395860153061
635,406.921196,33.12798690795898,5.55996370315552,27.83525466918945,0.8031657277321326,-0.015499870083770406,0.015938424942444896
636,406.929529,37.8482666015625,6.92984199523926,25.61488723754883,0.8050821265395806,-0.039759694921727554,0.02245689989352755
637,406.937862,41.09135437011719,8.2851734161377,25.36520385742188,0.8133189045653051,-0.055413872611766314,0.030123588381981634
638,406.946195,41.33515167236328,9.11799621582031,25.27622222900391,0.8179573136932999,-0.06327979418696224,0.032293054522299997
639,406.954528,42.37882614135742,9.72600173950195,24.96459579467773,0.8200759303813081,-0.06250695914638264,0.033148816045449996
640,406.962861,43.74546813964844,10.60347366333008,25.58085632324219,0.8208041288414776,-0.055654188808129584,0.03713522638593367
641,406.97119399999997,44.2379264831543,11.48173713684082,25.85059928894043,0.8303634487852755,-0.06748342392395919,0.03603655464795204
642,406.97952699999996,42.36298370361328,12.10426712036133,25.8973217010498,0.8424923371295541,-0.0947602366914551,0.04576830535518877
643,406.98785999999996,38.03842926025391,12.13802051544189,25.96416282653809,0.848227228437151,-0.10899240873297857,0.04894183910622857
644,406.996193,33.3239860534668,12.77038288116455,26.34404373168945,0.8507554385126856,-0.10155704556679285,0.0557956525257653
645,407.004526,28.81942749023438,13.27797794342041,26.57102966308594,0.8617668735737702,-0.09956351956542651,0.06123274564743061
646,407.012859,24.99974250793457,13.94532871246338,26.79512405395508,0.8769253322056357,-0.0970565725346,0.07311403143162652
647,407.021192,21.29866027832031,14.49872589111328,27.39093780517578,0.8824915788611593,-0.0952692542757306,0.07678833543037857
648,407.029525,18.04036903381348,15.16512870788574,27.68388366699219,0.8887436925148479,-0.09258524495728163,0.08320588846595918
649,407.03785799999997,15.9014253616333,16.01749610900879,28.01412963867188,0.8994021707651572,-0.08985419662631326,0.08717735202944998
650,407.04619099999996,14.10394287109375,16.99201583862305,28.24068641662598,0.911347914715202,-0.08269850696836223,0.08828204505297653
651,407.05452399999996,12.53056240081787,17.76453971862793,28.44406127929688,0.9224776832424867,-0.0837153439619102,0.0938086424555102
652,407.062857,10.64440250396729,18.42277526855469,28.05876731872559,0.9317342602476785,-0.08512053562670306,0.10112210804102346
653,407.07119,7.28519535064697,18.76172828674316,27.62394142150879,0.9406390482065632,-0.09592234480137754,0.10462057833768876
654,407.079523,5.00939321517944,19.43701934814453,26.55095291137695,0.9479926556957009,-0.09863327960578774,0.10802816371528469
655,407.087856,2.86053586006165,19.40328788757324,24.930419921875,0.9486986666309591,-0.0860134375338653,0.116902845246451
656,407.096189,0.72228354215622,19.86098480224609,23.14520454406738,0.9422509524287009,-0.08142209174681632,0.11972073389559386
657,407.104522,-0.42640045285225,20.18328857421875,21.15351867675781,0.9309732670686682,-0.07199959487331123,0.11874659937255204
658,407.11285499999997,-1.70990478992462,20.69006538391113,19.36328506469727,0.9173842838832306,-0.06390621467512449,0.12052057957162653
659,407.12118799999996,-2.93895387649536,21.60631370544434,17.29344940185547,0.9082304701513173,-0.053176630516441836,0.11507838356251632
660,407.12952099999995,-4.08544683456421,22.68754005432129,15.2461519241333,0.91223804318175,-0.05033878647551224,0.11515871602661734
661,407.137854,-5.29572105407715,23.73518943786621,13.07291221618652,0.9308061794358856,-0.05732826432403265,0.1217217469701959
662,407.146187,-6.85747337341309,24.66286468505859,11.36946296691895,0.9599578623868978,-0.06256496419711939,0.13838438355192856
663,407.15452,-9.18703937530518,25.14891815185547,9.64257526397705,0.9967719292154122,-0.06380065363280613,0.15290644704079184
664,407.162853,-12.40839099884033,25.22650909423828,8.51352500915527,1.040167711219009,-0.06411854101687041,0.16358537333352244
665,407.171186,-16.67880058288574,24.7132740020752,7.44523143768311,1.0819079924602897,-0.06684350115912346,0.1730163608278551
666,407.17951899999997,-20.65415954589844,23.58245658874512,6.38982248306274,1.1224676638233417,-0.06903889227886632,0.1840223463214173
667,407.18785199999996,-25.54074859619141,21.83708000183105,5.37204027175903,1.1567664632991865,-0.07196735970827958,0.19351698914352755
668,407.19618499999996,-30.17719078063965,19.72992324829102,4.18138742446899,1.1810166495186938,-0.07327854633331325,0.19958521638597754
669,407.204518,-34.16984558105469,17.14486122131348,2.54960608482361,1.1970823638293204,-0.07082999969015305,0.1996479350693367
670,407.212851,-36.62482452392578,14.38023567199707,0.32746565341949,1.2003194069375795,-0.06849864307714999,0.20265489208454998
671,407.221184,-36.27166748046875,11.67933750152588,-2.41383719444275,1.1891124686416314,-0.057272138644237754,0.19278933807295204
672,407.229517,-34.24399185180664,9.17116165161133,-5.5636739730835,1.1661264847735968,-0.03852158784866327,0.18316453816939385
673,407.23785,-31.29007339477539,7.78532648086548,-8.47983074188232,1.1444356490154652,-0.02402600281092551,0.16853016249987549
674,407.246183,-26.36982345581055,6.21061134338379,-11.66298961639404,1.1469194840411754,-0.006340848548071428,0.1557118916998102
675,407.25451599999997,-20.6777172088623,5.10771179199219,-15.03205490112305,1.1796263286045623,-0.002839052669552041,0.15445838169175713
676,407.26284899999996,-14.83310699462891,3.54721474647522,-17.96844291687012,1.223088965124013,-0.016610932593442856,0.15940914348680102
677,407.27118199999995,-9.64755535125732,1.18663120269775,-21.63894271850586,1.2567422827895807,-0.046560107445230606,0.17064120088304796
678,407.279515,-5.15576410293579,-1.52178120613098,-24.92102813720703,1.2847053761384928,-0.0669888817534153,0.1847577703242398
679,407.287848,-1.71986901760101,-4.33765840530396,-27.44100952148438,1.3189576596629866,-0.07823087731186223,0.199437457688001
680,407.296181,0.41737148165703,-7.44118404388428,-29.14842987060547,1.349649818576112,-0.09020766433404387,0.20679632011725
681,407.304514,1.08439242839813,-11.02523517608643,-30.2965202331543,1.354660112030652,-0.1103990905138908,0.19816913166824693
682,407.312847,0.96239167451859,-14.94332027435303,-31.57894897460938,1.315953585566306,-0.1258371800792459,0.1895921084345602
683,407.32117999999997,0.11740298569202,-18.57314872741699,-32.95552444458008,1.2356595603787173,-0.13461766194324082,0.16931100767485915
684,407.32951299999996,-0.5049085021019,-21.30317115783691,-35.17440795898438,1.1425500013390366,-0.1353604209666347,0.1571616591239459
685,407.33784599999996,-1.08450853824615,-23.32352828979492,-38.16450881958008,1.054349626813616,-0.1352028822412296,0.14214901291594184
686,407.346179,-1.88254761695862,-24.63199424743652,-41.94611358642578,0.9762435056725326,-0.14045711682767245,0.12884247059724796
687,407.354512,-3.16810441017151,-25.31377983093262,-46.36528778076172,0.9245375224522183,-0.1449775209232255,0.1189148426055908
688,407.362845,-4.98841285705566,-25.62234115600586,-50.93203353881836,0.9129863855790121,-0.1514959335327153,0.11331299129797448
689,407.371178,-7.60071659088135,-25.88238525390625,-55.1400260925293,0.9322152818952285,-0.15786082160716122,0.11700121723875713
690,407.379511,-10.9299430847168,-26.47211837768555,-59.03619384765625,0.974931814232651,-0.16876710920917753,0.12090052877153673
691,407.387844,-15.60400295257568,-27.69610977172852,-62.28035736083984,1.024491251731405,-0.18481119554869999,0.13318469329756122
692,407.39617699999997,-22.43326187133789,-29.39840888977051,-64.52046966552734,1.0764915115979254,-0.2059073594151714,0.14041938343826632
693,407.40450999999996,-30.61550712585449,-31.46927070617676,-65.86811065673828,1.124205978549256,-0.22668028364376122,0.14810574298002244
694,407.412843,-39.67840957641602,-33.90191650390625,-66.29430389404297,1.1681755221619896,-0.23409828847768369,0.14561754100176733
695,407.421176,-48.58626556396484,-36.38165283203125,-66.2042007446289,1.1969712315773477,-0.23039002807772857,0.12277824538094692
696,407.429509,-55.69002151489258,-39.12955474853516,-66.27039337158203,1.2172206567258255,-0.22376525158784794,0.09596940814232345
697,407.437842,-60.6026496887207,-41.46559524536133,-66.6375732421875,1.2253352573939733,-0.2084055968693326,0.06895075038987755
698,407.446175,-63.80809783935547,-43.5443000793457,-67.61351776123047,1.2279922135022223,-0.19542306053395203,0.046443276259364286
699,407.454508,-65.0135726928711,-45.04254150390625,-69.14546966552734,1.222854633720554,-0.18201376710619285,0.03324601419117959
700,407.46284099999997,-63.64821243286133,-46.37479400634766,-71.45256805419922,1.2068002077997948,-0.16457058945480613,0.02064482746075612
701,407.47117399999996,-60.80248260498047,-47.59842300415039,-73.73556518554688,1.1767315377994458,-0.15750246388571632,0.014671433945091836
702,407.47950699999996,-61.00588989257812,-48.06673812866211,-73.83290100097656,1.148659745041205,-0.14526403680139693,0.01880038605660816
703,407.48784,-62.78647994995117,-50.18705368041992,-74.06752014160156,1.1114515577043804,-0.12559186439124898,0.032485574483871425
704,407.496173,-73.24193572998047,-49.5372200012207,-72.0395736694336,1.057951499004753,-0.12156431772271019,0.020096674561501018
705,407.504506,-77.91777038574219,-51.09619140625,-75.7602310180664,1.0349182206757215,-0.04345268011093163,-0.019323266282373467
706,407.512839,-73.22750091552734,-52.71052169799805,-81.67825317382812,0.9849871421346856,-0.004683294694642857,-0.03766361547976122
707,407.521172,-64.91168212890625,-50.40277481079102,-83.38601684570312,0.9357358971420601,-0.03000764518367959,-0.037259331771306116
708,407.529505,-46.48419189453125,-47.32118988037109,-89.60228729248047,0.9241101206565387,0.010151560513340815,-0.03246820702844694
709,407.53783799999997,-19.68084907531738,-44.21389007568359,-97.38855743408205,0.8966597732232541,0.033177021814852034,-0.025973882602185715
710,407.54617099999996,4.41131591796875,-38.79908752441406,-100.81781768798828,0.8696329350374182,-0.020786038770967345,-0.02495214038965612
711,407.554504,22.68622398376465,-34.38939666748047,-103.84982299804688,0.8766125659553367,-0.11058362162843059,-0.02181215401814898
712,407.562837,31.82040023803711,-31.98215675354004,-103.88990020751952,0.8841645960905111,-0.12547057502123776,-0.003498069637891836
713,407.57117,31.6583309173584,-30.07148170471191,-103.02702331542967,0.8807354557270908,-0.09045707327978979,0.006369701301565306
714,407.579503,29.29216766357422,-28.71573829650879,-104.85504150390624,0.8673118085277325,-0.07723262723611327,-0.008068504382153062
715,407.587836,29.08636856079102,-27.40889549255371,-108.304931640625,0.8734355654035295,-0.11233936767188876,-0.017112356667616326
716,407.596169,27.57903671264648,-26.54556655883789,-110.41100311279295,0.8854395029496173,-0.16704078839749695,-0.012035697546540814
717,407.60450199999997,21.44198799133301,-26.02337837219238,-109.63992309570312,0.903437088946907,-0.20766338523553368,-0.0030975602567193876
718,407.61283499999996,11.75435924530029,-25.77794647216797,-107.52002716064452,0.9137697609103459,-0.22614861021236526,-0.0039465847064040814
719,407.62116799999995,0.64078509807587,-26.00556564331055,-105.03353881835938,0.920856534218302,-0.2164612984170714,-0.007671278198155102
720,407.629501,-11.10997867584229,-26.71393013000488,-102.31834411621094,0.925621889075454,-0.19209658613010305,-0.01841972525022449
721,407.637834,-22.44822692871094,-27.41327285766602,-99.16246032714844,0.9269745495854591,-0.174607476409601,-0.02662526101482143
722,407.646167,-32.60365295410156,-27.7556095123291,-95.84427642822266,0.9315706759083031,-0.16407571276839897,-0.0361821754854551
723,407.6545,-40.71319580078125,-27.84098243713379,-92.4662857055664,0.9401449865224407,-0.14919598491824387,-0.04458731838635
724,407.662833,-45.56265258789062,-27.98575019836426,-88.89817810058594,0.9467334163432214,-0.1305192100758459,-0.051498832751293876
725,407.67116599999997,-48.10732269287109,-27.78420448303223,-84.96858978271484,0.9535591942923407,-0.11557493891034795,-0.04978895187377959
726,407.67949899999996,-49.15039443969727,-27.05863380432129,-80.30079650878906,0.9629478259962428,-0.10523995574639794,-0.0555829308470898
727,407.68783199999996,-48.78585433959961,-26.4590015411377,-75.36083221435547,0.9702322434405887,-0.09770044258662652,-0.05389160647684183
728,407.696165,-46.90813446044922,-25.63214874267578,-70.420166015625,0.976084105822505,-0.08758494440390101,-0.055407778340942855
729,407.704498,-43.68518447875977,-24.48598289489746,-65.20753479003906,0.9798548172931285,-0.07923208937353061,-0.05755657444194897
730,407.712831,-39.1967658996582,-23.13411140441895,-60.07566833496094,0.978234641406001,-0.07106312683650408,-0.05722704590583367
731,407.721164,-33.29126358032227,-21.55381393432617,-55.21096801757812,0.9755360350316887,-0.06591922774606836,-0.06065396021823469
732,407.729497,-26.69136810302734,-20.00801849365234,-50.51585388183594,0.9715180494347396,-0.059392950972732644,-0.06336800297912244
733,407.73783,-19.70136642456055,-18.32074356079102,-45.75454330444336,0.9724774652597856,-0.05463614147536632,-0.05906238847849285
734,407.74616299999997,-12.76984691619873,-16.45536994934082,-41.13538360595703,0.9840256827218193,-0.050514562397586726,-0.05543082952499387
735,407.75449599999996,-5.74963521957397,-14.84883499145508,-36.53255844116211,0.9988004334118897,-0.04941527940789081,-0.05504838666137346
736,407.76282899999995,0.9663108587265,-13.11415672302246,-32.08865356445312,1.0133424097177939,-0.047525471570540816,-0.051828732295912235
737,407.771162,7.37394762039185,-11.4927453994751,-27.7717456817627,1.0362474285826386,-0.054866768875901015,-0.05153860972852143
738,407.779495,13.58745384216309,-9.54765033721924,-23.53804016113281,1.0709843343617969,-0.059170303296069385,-0.05226992222727551
739,407.787828,18.67364501953125,-7.72939395904541,-18.69227981567383,1.11518246786935,-0.05654300353964999,-0.05244948426071428
740,407.796161,22.28336334228516,-6.28480291366577,-13.78810024261475,1.1461879769150092,-0.06126723119190714,-0.04567384111637959
741,407.804494,24.64038276672363,-4.84440994262695,-8.59780693054199,1.166792889030612,-0.07084367226581224,-0.03998275009953265
742,407.81282699999997,25.64361381530762,-3.00669026374817,-3.54795813560486,1.177456914162149,-0.07840098166952346,-0.03380782141977449
743,407.82115999999996,25.76387405395508,-1.37639439105988,1.45938456058502,1.1758069602810601,-0.0832342858217204,-0.027314728620101023
744,407.82949299999996,25.69697380065918,0.47089239954948,6.11016416549683,1.1560900357304784,-0.08026972717168367,-0.01611073254322551
745,407.837826,24.96963119506836,2.46168351173401,10.75285053253174,1.1292497479185766,-0.07319725897847346,-0.00619794945327653
746,407.846159,24.91066741943359,4.68202877044678,14.30142402648926,1.10951618272431,-0.06671460915585,-0.004572465407605102
747,407.854492,27.62845039367676,7.20278215408325,16.5496940612793,1.1094160469210876,-0.025292799180867347,0.004736180512272448
748,407.862825,30.84537696838379,10.56990623474121,19.71065139770508,1.1587070932193673,0.021925304008989795,0.0009589528246806121
749,407.871158,34.45295333862305,13.24160766601562,22.79558944702148,1.2261089013547317,0.04326618143490408,-0.00974844304882755
750,407.879491,38.43581390380859,14.94831848144531,25.17137718200684,1.2850433466385827,0.03818791435689387,-0.017952163304601018
751,407.88782399999997,42.51015472412109,16.80449485778809,28.58524513244629,1.3419967768143632,0.049338173501345915,-0.021602353271173467
752,407.89615699999996,46.12532424926758,19.08328056335449,33.26576232910156,1.3864746872259641,0.07061782540107245,-0.027509684465369385
753,407.90449,50.95885848999023,19.97236633300781,38.15286636352539,1.4035873996968173,0.08120843342372347,-0.015012091215775509
754,407.912823,54.61216354370117,20.63087272644043,43.52960968017578,1.3631460617999642,0.06660461425781224,-0.001767498193955102
755,407.921156,56.26546478271484,21.25129508972168,49.1083984375,1.263285072482362,0.038350708022409176,0.02409573568373265
756,407.929489,56.67816543579102,22.24639892578125,54.48283004760742,1.1445687741649397,0.016167401051034692,0.05203418585718877
757,407.937822,55.39555740356445,23.66189002990723,59.35482406616211,1.0541265838000236,0.003414683956272449,0.0806938142192602
758,407.946155,52.82625961303711,24.43214416503906,63.7889404296875,1.00333106761076,-0.006258537878795918,0.11411447914279284
759,407.95448799999997,47.74860763549805,24.29869079589844,67.14716339111328,0.9885720817410214,-0.02338687528152857,0.14368746961866122
760,407.96282099999996,39.47575759887695,22.81901550292969,69.18619537353516,0.9977424388029131,-0.04544916201610918,0.17021014982340305
761,407.97115399999996,30.03347969055176,20.96165084838867,70.24481964111328,1.0320245003213684,-0.06919519633662959,0.17956033044931835
762,407.979487,21.80324363708496,18.17877197265625,71.0126953125,1.0796912835568795,-0.0576474107041653,0.18760943899349283
763,407.98782,13.89890289306641,15.3503532409668,71.43766784667969,1.1329636281850388,-0.02565565462015102,0.1815976537003806
764,407.996153,9.30314636230469,12.28966522216797,71.71636199951172,1.1848475981731805,-0.005470244404004081,0.15887644826149488
765,408.004486,6.92531394958496,9.22562408447266,71.57051086425781,1.2172812831645112,0.007129095646799999,0.14118514498885817
766,408.012819,6.71289443969727,6.45110321044922,71.63813018798828,1.2222386379631194,0.01141796002582653,0.12233937273220101
767,408.021152,8.06837940216064,4.43033504486084,71.64983367919922,1.1977737777087152,0.015489150370870407,0.10256037420156021
768,408.02948499999997,10.94251441955566,3.12574458122253,71.3539810180664,1.1521725751915755,0.007830574652370408,0.08886207731402652
769,408.03781799999996,15.69758796691895,2.7964723110199,70.8662109375,1.1028304391977735,-0.0018399611723663263,0.08015571808328469
770,408.046151,22.46585083007812,3.23237824440002,69.98814392089844,1.0493789400373184,-0.0005393401168438775,0.0710692515178602
771,408.054484,31.4163875579834,3.92204546928406,68.86420440673828,0.9910438498672173,0.009780943545760203,0.07679779918826327
772,408.062817,42.32378005981445,4.70144271850586,67.5880355834961,0.9292247344036489,0.017576936860473468,0.08873968708271836
773,408.07115,53.55157852172852,6.15478134155273,65.42881774902344,0.8729861707103499,0.01201010404192653,0.1038435892182949
774,408.079483,62.51850509643555,8.30416774749756,63.86893081665039,0.8140454486924775,-0.019719257038466324,0.09430554448341837
775,408.087816,72.47320556640625,10.49561977386475,60.91455841064453,0.7686692841198979,-0.014293475114569389,0.09179358579674592
776,408.09614899999997,86.35785675048828,11.25730895996094,57.58042144775391,0.7335891042436867,-0.010627594833471428,0.06100314004080612
777,408.10448199999996,103.9888153076172,14.57687759399414,50.49797439575195,0.686269390339754,-0.021357370578513262,0.021984701862140812
778,408.11281499999996,134.66656494140625,9.24423599243164,41.11412048339844,0.7600667038742377,-0.025487732218236733,0.2018638289704612
779,408.121148,137.29168701171875,2.25839734077454,44.99142456054688,0.7800723095329438,-0.25224775684123163,0.3405954643171663
780,408.129481,134.310791015625,1.01795303821564,43.06032180786133,0.8340521248019469,-0.5326866130439601,0.4072885367335102
781,408.137814,139.4214630126953,2.99049234390259,42.47694778442383,0.7799170455154112,-0.372634031334702,0.37720492907932857
782,408.146147,132.75450134277344,4.48343944549561,45.47844314575195,0.7119898406826723,-0.06907871183083979,0.2581070150647847
783,408.15448,124.13360595703124,1.00524652004242,50.55358123779297,0.7164337683697132,-0.07677139068136428,0.19039421665425202
784,408.16281299999997,109.08609008789062,0.76093196868896,54.00366592407227,0.7166781717417193,-0.2618500407861204,0.12031698713497244
785,408.17114599999996,85.00798034667969,-0.81434804201126,56.75556182861328,0.7572986641708683,-0.3338042813904428,0.08760664536028469
786,408.17947899999996,53.31306457519531,-1.90164995193481,60.15397644042969,0.7739882566490949,-0.31239302790894796,0.025607545156868368
787,408.187812,27.28573799133301,-2.26355171203613,62.2267951965332,0.7954190701854469,-0.2781067819011459,-0.01958152013165612
788,408.196145,6.62341737747192,-1.28487873077393,65.02946472167969,0.8076581663014938,-0.2722178429973367,-0.029356579999534692
789,408.204478,-7.38013029098511,0.14620663225651,66.28727722167969,0.8370958055768694,-0.2768605825852377,-0.017115531527266324
790,408.212811,-20.71511840820312,1.52740943431854,68.50628662109375,0.8684313053987458,-0.26850024048162957,0.009702295825189796
791,408.221144,-33.67583084106445,3.29062724113464,71.16631317138672,0.8931656273043886,-0.2608412869122561,0.02076378130182959
792,408.229477,-42.10788345336914,4.71343231201172,73.09588623046875,0.9117619845331927,-0.23433330107708364,0.030174994347046936
793,408.23780999999997,-46.7481689453125,5.9468469619751,74.52751922607422,0.9217386829609775,-0.1987031163001551,0.04853197506495918
794,408.24614299999996,-49.42756271362305,7.4818959236145,76.45514678955078,0.9309177009426816,-0.18387477008663877,0.06497112463931631
795,408.25447599999995,-50.40190505981445,9.04315090179443,78.14215087890625,0.943932435950454,-0.18550708585855918,0.08490698678152857
796,408.262809,-49.76687240600586,10.49858665466309,79.27806854248047,0.9546733389095388,-0.19188631554039182,0.10674976572698469
797,408.271142,-47.7364501953125,11.642897605896,80.13603210449219,0.9698065932916132,-0.1939565916450653,0.12310023210486631
798,408.279475,-44.61180114746094,12.44225978851318,80.98017883300781,0.9754858211595182,-0.194582756684751,0.1338662055073949
799,408.287808,-41.16000366210938,12.98354244232178,81.65486145019531,0.9805315368029541,-0.20118668371317344,0.1480856355355714
800,408.296141,-37.75160980224609,13.40026187896729,81.72374725341797,0.9786776133946009,-0.21147436025191324,0.15186478897016836
801,408.30447399999997,-35.02397155761719,13.74011039733887,81.46886444091797,0.976833810611647,-0.21767837660653264,0.1626272590792908
802,408.31280699999996,-32.25202178955078,13.93021583557129,80.3749771118164,0.9701751202953101,-0.2242174927069214,0.17012564503416733
803,408.32113999999996,-29.27251815795898,14.05113792419434,78.60327911376953,0.9557194612464122,-0.22682630285924793,0.17048912388937856
804,408.329473,-26.64935874938965,14.25860500335693,76.1377944946289,0.9454947101826572,-0.23123651134724485,0.17499858019303266
805,408.337806,-24.10983467102051,14.7949104309082,73.18029022216797,0.9417707092907958,-0.22473036026468057,0.17492254169619795
806,408.346139,-21.71016883850098,15.43011665344238,70.28584289550781,0.9627902751066244,-0.22064566612243675,0.17936734520659184
807,408.354472,-19.47638511657715,16.05330657958984,67.39311218261719,0.9983441294456009,-0.21950313023158466,0.1818844858480959
808,408.362805,-17.74428558349609,16.38065338134766,64.47789764404297,1.046397929288903,-0.22485728166541225,0.19755022866385305
809,408.371138,-16.79014205932617,16.05990409851074,61.52506637573242,1.0949433579736825,-0.2374054461109398,0.21464892796107649
810,408.37947099999997,-17.24486923217773,15.34338855743408,58.67548370361328,1.144234209644551,-0.25689419434995103,0.2372702773736449
811,408.38780399999996,-18.64591407775879,13.94571495056152,55.71360397338867,1.1906963465165121,-0.2768095172181418,0.25723771173126836
812,408.39613699999995,-21.26997184753418,12.06308555603027,52.73655319213867,1.2326412784809968,-0.29008373922231223,0.27513635401823056
813,408.40447,-23.70685768127441,9.77265071868896,49.8121223449707,1.2569302928691009,-0.29958175153148364,0.2894372842749775
814,408.412803,-25.78281593322754,6.83947849273682,46.24388885498047,1.2545711167004643,-0.30321763486278264,0.2949180651684194
815,408.421136,-26.43405151367188,4.1271538734436,41.93573379516602,1.2266872367080377,-0.3003598232658541,0.2883388071644061
816,408.429469,-25.71207809448242,1.91766440868378,36.92479705810547,1.1899516047263632,-0.2905249352357826,0.2774373365908255
817,408.437802,-23.52936935424805,0.631212413311,31.38658332824707,1.1727507260380958,-0.27437718547120404,0.2637728136412949
818,408.44613499999997,-20.3732738494873,-0.18400003015995,25.40259552001953,1.2020001119496866,-0.2483100793799571,0.2385678339977653
819,408.45446799999996,-16.54867172241211,-0.63012319803238,19.4907112121582,1.2755338513121315,-0.22779408766298875,0.21858327242792855
820,408.46280099999996,-12.59170532226562,-1.81124711036682,13.48475742340088,1.3510567801339284,-0.21932572734599182,0.2063714728063469
821,408.471134,-9.91176223754883,-3.84850096702576,7.44343423843384,1.4011334399787745,-0.22833967695430812,0.21891800724730204
822,408.479467,-8.2649974822998,-6.81222248077393,0.53340375423431,1.4192440071884467,-0.24331139058482856,0.23825652745305306
823,408.4878,-6.98182821273804,-9.69981861114502,-7.01656055450439,1.4228874323319416,-0.25723661695207856,0.24948920522417345
824,408.496133,-5.48098754882812,-12.68208599090576,-14.51310920715332,1.4105659601639724,-0.25412542479378875,0.25240299653033776
825,408.504466,-2.52351641654968,-16.27758979797363,-22.63175582885742,1.348120436376455,-0.24616465276601326,0.23493890859642855
826,408.512799,1.93988347053528,-19.30420303344727,-30.74141883850098,1.2271657281992387,-0.23782455191320306,0.20898999000082244
827,408.52113199999997,7.61900615692139,-21.41557502746582,-38.94464111328125,1.084242256320253,-0.22530258918295099,0.1747771428555857
828,408.52946499999996,12.09003829956055,-21.50068092346191,-46.90193176269531,0.9652725531130418,-0.21296318696469693,0.14429059563850916
829,408.537798,15.46217250823975,-20.04154968261719,-54.80935668945312,0.9083788735525948,-0.20352762572619387,0.11686874895679693
830,408.546131,17.87472343444824,-17.82938385009766,-62.7613525390625,0.9062154925599387,-0.19169472918218466,0.08737311071279082
831,408.554464,21.2783260345459,-15.72441577911377,-70.87564086914062,0.9615438811633051,-0.17408328396933467,0.0690753119332449
832,408.562797,23.30124282836914,-13.98288249969482,-78.51673126220703,1.0400411060878203,-0.16299865683730813,0.06608269652541836
833,408.57113,21.42731475830078,-12.861572265625,-84.68892669677734,1.1230488212741152,-0.18709405344359695,0.0796610785990347
834,408.579463,15.77456760406494,-13.27703285217285,-89.76610565185547,1.2114645510303734,-0.2327892001794306,0.10689875301049694
835,408.58779599999997,5.53977537155151,-15.30458736419678,-93.32735443115234,1.2940589749083224,-0.27070575830887755,0.1415105985135449
836,408.59612899999996,-6.78795671463013,-17.98040580749512,-95.06533050537108,1.3639375141688754,-0.3005466412524786,0.15764280241362857
837,408.60446199999996,-19.52712821960449,-20.96767234802246,-94.90096282958984,1.4074872464549786,-0.30770630252604586,0.16173856598990305
838,408.612795,-31.00385475158691,-23.75686454772949,-93.22895050048828,1.4147271915357937,-0.3024509488319867,0.1445227983046551
839,408.621128,-39.21083831787109,-26.06858062744141,-91.35308837890624,1.3884614438426732,-0.2845964383105847,0.12022251985511019
840,408.629461,-44.25041198730469,-27.818359375,-89.39571380615234,1.3364590430746275,-0.2605113204644653,0.0947701140325898
841,408.637794,-47.79447555541992,-29.27149963378906,-88.31621551513672,1.2697884501243122,-0.24335357607627445,0.06791356874971938
842,408.646127,-50.8733024597168,-30.19117546081543,-88.05303955078125,1.198530099829849,-0.23104524125858264,0.05378273068642143
843,408.65446,-52.79496765136719,-30.66835594177246,-89.24254608154297,1.1243255770936305,-0.2087544665044663,0.03294765036933265
844,408.66279299999997,-53.40853118896484,-31.15612030029297,-91.68856811523438,1.0478701883432815,-0.17324425736252141,0.02348140490298367
845,408.67112599999996,-52.50901794433594,-31.00259399414062,-95.05052947998048,0.9743612639758051,-0.13849848387192754,0.015465609577237752
846,408.679459,-49.70023345947266,-30.04137420654297,-98.95706176757812,0.9074188738453143,-0.11387988012664182,0.005819354662481633
847,408.687792,-46.02029037475586,-28.73845100402832,-103.35955810546876,0.8501911163330081,-0.09961713941729795,0.006349331946396939
848,408.696125,-41.13440322875977,-26.72403144836426,-107.78825378417967,0.8090678526430714,-0.0905277899333408,0.0008150217674520407
849,408.704458,-35.82063293457031,-24.41563415527344,-112.25439453125,0.7849328371943255,-0.08542265210832857,0.0020545052022346937
850,408.712791,-30.33651351928711,-21.94112205505371,-116.697265625,0.7745963699963632,-0.08760406654708265,-0.0009051966956071429
851,408.721124,-25.88018035888672,-19.36187171936035,-120.17361450195312,0.7775967948290765,-0.09888144780178469,-0.0012499163383428572
852,408.72945699999997,-23.21102142333984,-17.0014705657959,-123.14571380615234,0.7835246592151877,-0.1159043579685449,-0.004469261561729591
853,408.73778999999996,-19.05639457702637,-14.56836891174316,-125.83042144775392,0.7972443833643071,-0.11707499319193264,-0.008697296891893877
854,408.74612299999995,-16.80715370178223,-12.94832801818848,-127.80942535400392,0.8081246882068867,-0.11452783127220306,-0.002111785912087755
855,408.754456,-17.49268341064453,-11.12620830535889,-128.4324188232422,0.8227971135353551,-0.13408274066691528,-0.002841633573478571
856,408.762789,-19.56982421875,-9.86151313781738,-128.36770629882812,0.8472660609654019,-0.15332710986234693,0.0020123045055234694
857,408.771122,-24.22968292236328,-9.27419376373291,-127.75226593017578,0.8685564508243478,-0.16166699175931937,0.007289065694322449
858,408.779455,-29.72514343261719,-9.03946113586426,-126.41045379638672,0.8900328071749938,-0.16744859364567957,0.0032847606557969387
859,408.787788,-35.41843795776367,-9.34556865692139,-124.53465270996094,0.9029021555063673,-0.1672361578260153,0.0020601577600653062
860,408.79612099999997,-41.43080139160156,-9.98910999298096,-122.29549407958984,0.9119552495528244,-0.1645783988796939,0.0005208081755867346
861,408.80445399999996,-47.68077087402344,-10.5717658996582,-119.29828643798828,0.9289457360092468,-0.16298378000453978,-0.0010519198199010202
862,408.81278699999996,-53.9792366027832,-11.58526706695557,-115.72341918945312,0.9443220800283,-0.16076899304681935,-0.004869000796153061
863,408.82112,-59.92560195922852,-13.02785682678223,-112.09878540039062,0.9531120378143927,-0.15741652371932038,-0.007421426018889796
864,408.829453,-64.41128540039062,-14.37118434906006,-108.05868530273438,0.954201951318857,-0.1454002394968153,-0.013284366957994896
865,408.837786,-66.63693237304688,-15.58364200592041,-103.96759033203124,0.9524287009725765,-0.12752030576978368,-0.020912558752663263
866,408.846119,-66.79119110107422,-16.51275253295898,-99.68634033203124,0.9528083217387296,-0.1070970175217612,-0.025581890831188777
867,408.854452,-65.57168579101562,-17.15678787231445,-95.18376922607422,0.954517247725506,-0.09405390948665407,-0.02736136621358469
868,408.862785,-63.037353515625,-17.87920188903809,-90.27994537353516,0.9562474854138429,-0.08723129423297142,-0.033134477479117345
869,408.87111799999997,-59.76930618286133,-18.45228004455566,-85.58415985107422,0.9515946252005438,-0.08189346717328469,-0.0314975636346
870,408.87945099999996,-55.8812255859375,-18.74736595153809,-80.96961212158203,0.9468687797079286,-0.07765893425260306,-0.031167694500514286
871,408.88778399999995,-50.09819030761719,-18.84303665161133,-76.34122467041016,0.943599428449358,-0.06702048437935917,-0.03748537630450918
872,408.896117,-42.91423797607422,-18.63323402404785,-72.02141571044922,0.9429394468969224,-0.0522584148815704,-0.03809900916352551
873,408.90445,-34.49881362915039,-18.07430648803711,-67.51673889160156,0.9482262085895152,-0.03947247047813571,-0.04084607472225102
874,408.912783,-25.44016647338867,-17.3641300201416,-62.76477432250977,0.9630327808613682,-0.03431299511267245,-0.04314631831889285
875,408.921116,-16.4475212097168,-16.39036178588867,-57.86145782470703,0.9878762887448683,-0.03150571365745714,-0.038815821920122444
876,408.929449,-7.42943000793457,-15.44326305389404,-52.61852645874023,1.0224164262109876,-0.0314409361810102,-0.04023079665339694
877,408.93778199999997,1.41796863079071,-14.62815284729004,-47.28177642822266,1.0639216948528685,-0.03042298616195204,-0.0346951642814949
878,408.94611499999996,9.79624462127686,-13.90708065032959,-41.62038803100586,1.1064780488306163,-0.03223091363906836,-0.025888863874941832
879,408.95444799999996,18.15559005737305,-13.49404716491699,-35.84154510498047,1.142762534472407,-0.03613995654242347,-0.02273812890052755
880,408.962781,26.21663284301758,-13.26580047607422,-29.86601257324219,1.1669326315120774,-0.03888475651643673,-0.015791680435744894
881,408.971114,34.67972183227539,-12.96739482879639,-24.25592613220215,1.1723310120251713,-0.03771001283003367,-0.012998123254094898
882,408.979447,43.27573394775391,-12.37127876281738,-18.49676895141602,1.1642482329388049,-0.03715138350214285,-0.014743108530433674
883,408.98778,52.13249588012695,-11.61625194549561,-12.91316890716553,1.1414662185980347,-0.03797141569001326,-0.01969311158267857
884,408.996113,60.85133743286133,-10.57388496398926,-7.41273260116577,1.1138201733024753,-0.034736407046415306,-0.013911159975187753
885,409.004446,69.4072036743164,-9.50872421264648,-2.4719123840332,1.0646761680135917,-0.029645507432976528,-0.003422762134245918
886,409.01277899999997,77.90530395507812,-7.98534393310547,1.42050898075104,1.0222716234168223,-0.010142892751158162,0.010192520460304081
887,409.02111199999996,86.45932006835938,-5.73092985153198,4.846848487854,1.034444400242397,0.005260361548588775,0.025188659830969386
888,409.029445,94.19527435302734,-3.72578573226929,7.57840156555176,1.1097541147348837,0.011477386768983673,0.04212194863630816
889,409.037778,100.31089019775392,-3.07534980773926,10.45510768890381,1.2151497237536366,0.003428789501895918,0.058718390610753055
890,409.046111,104.6928253173828,-3.81295967102051,13.90788555145264,1.3028150675248122,-0.014396712792163263,0.07141123620831223
891,409.054444,108.22792816162108,-4.75767660140991,17.66152191162109,1.3705347022231744,-0.01852285801147959,0.06538942152140102
892,409.062777,110.96292877197266,-5.75841379165649,22.44453430175781,1.431249112499003,-0.00809511968067755,0.0517796436134653
893,409.07111,113.41226196289062,-6.20370101928711,28.35274696350098,1.4691985383325692,-0.008938273757087755,0.028696154453316323
894,409.07944299999997,114.48527526855467,-6.47217130661011,34.91695785522461,1.4548797996676692,-0.023809844742016327,-0.01170834564432755
895,409.08777599999996,114.51457214355467,-6.37212324142456,40.75365829467773,1.3710950345409163,-0.05864108095363673,-0.030018878834587755
896,409.09610899999996,113.99403381347656,-5.26009464263916,46.41800689697266,1.2399467156857855,-0.08692417217760713,-0.027285869024237755
897,409.104442,112.37789916992188,-2.51245737075806,52.07326507568359,1.1093118239422235,-0.10192010475664694,0.0046592000491765305
898,409.112775,106.53734588623048,1.80400836467743,57.92176818847656,1.0268155895933815,-0.12572815223616018,0.04495908411181734
899,409.121108,97.91722869873048,5.57964086532593,63.302734375,0.9911229659099969,-0.16597463160144998,0.08908019990337142
900,409.129441,86.54352569580078,7.74318838119507,67.54239654541016,0.9922256275099152,-0.19585066912125612,0.13764140557269694
901,409.137774,72.542236328125,8.84354877471924,70.8262710571289,1.012979916163853,-0.20909530775887653,0.1887461968830653
902,409.146107,57.16916656494141,9.08949947357178,73.54254913330078,1.0589671621517256,-0.20768798127466326,0.21966026753795406
903,409.15443999999997,41.557373046875,8.33957576751709,75.78638458251953,1.1223286998515223,-0.19818701306167957,0.23888772847701123
904,409.16277299999996,26.48929786682129,6.60698843002319,77.76979064941406,1.1836892731335693,-0.18108573495125305,0.24508994452807345
905,409.171106,12.03782272338867,4.06779336929321,79.60352325439453,1.2269370409907123,-0.17390211017764387,0.23193169613273776
906,409.179439,-1.31027805805206,1.57433664798737,81.4118881225586,1.251258850097656,-0.17300038921589794,0.20283643080263672
907,409.187772,-14.22267627716064,-1.01003980636597,84.16255187988281,1.2412174380555447,-0.17329416712936122,0.17641741402295202
908,409.196105,-26.9901180267334,-3.55383443832397,86.8874282836914,1.2046535647645285,-0.1978798423494612,0.1417660348269408
909,409.204438,-37.91783142089844,-5.60171222686768,89.04232788085938,1.1593014853341235,-0.22727929815954082,0.12069649842320612
910,409.212771,-47.59030532836914,-7.30039501190186,90.47770690917967,1.093005452837263,-0.2365322015723408,0.09655731673143367
911,409.22110399999997,-53.23384094238281,-8.08419990539551,91.01512145996094,1.024006045594507,-0.21928531782967653,0.07804174204261938
912,409.22943699999996,-53.87874221801758,-8.51898097991943,90.230712890625,0.9519906919829704,-0.18173081534249488,0.06592768795636224
913,409.23776999999995,-48.54059219360352,-8.25998592376709,88.52537536621094,0.8756834146927815,-0.13030760142267958,0.06817647389003163
914,409.246103,-38.34839630126953,-7.12966251373291,85.74105072021484,0.8057998151195296,-0.08671554375667959,0.07412064440396327
915,409.254436,-25.41404914855957,-5.40188503265381,82.50851440429688,0.7444368576516908,-0.06180971860885612,0.07822138314344489
916,409.262769,-10.6064281463623,-3.27296686172485,79.15021514892578,0.6987618426887356,-0.05012574244518673,0.08237631953492448
917,409.271102,4.23880624771118,-0.86508685350418,76.6341781616211,0.6653797869779622,-0.03979397063352653,0.0792436332118755
918,409.279435,17.44186019897461,1.68440091609955,75.26673126220703,0.6390640686969367,-0.0441532810123602,0.0742319408728153
919,409.28776799999997,31.53468704223633,4.53685760498047,74.42501068115234,0.6235645255263969,-0.060978848107007134,0.04128926262563572
920,409.29610099999996,52.0844841003418,10.52754783630371,71.1587905883789,0.5871587870072347,-0.03609604069164796,-0.018683890907131632
921,409.30443399999996,87.55645751953125,8.13562679290771,65.0570297241211,0.6774153514784214,-0.011270035590443877,0.11766528596683469
922,409.312767,92.69591522216795,5.65945959091187,74.13650512695312,0.6756690083717816,-0.209559007566802,0.19581519827550814
923,409.3211,89.6749267578125,8.9597864151001,72.97360229492188,0.7201103288300182,-0.41500232657607755,0.15386934183081835
924,409.329433,85.45440673828125,6.44925117492676,74.14509582519531,0.710069695297553,-0.3056195560766724,0.17401577258596632
925,409.337766,74.08981323242188,6.56570053100586,78.15190887451172,0.7002050049450927,-0.1870795780298663,0.12687949501738263
926,409.346099,71.79896545410156,6.48143005371094,81.3251724243164,0.7312797526923979,-0.1889269692557194,0.07790823980253571
927,409.354432,68.076904296875,4.96656131744385,83.50418853759766,0.7843774192187255,-0.24547771531708368,0.07707665769421326
928,409.36276499999997,55.13128280639648,3.01884579658508,86.97356414794922,0.8208541480862368,-0.28913782567393975,0.06883551271594285
929,409.37109799999996,36.39545440673828,1.68955492973328,90.68810272216795,0.8410921875311407,-0.3059813197778194,0.04057477323376428
930,409.37943099999995,20.45347595214844,0.43214124441147,93.12346649169922,0.8652417513788958,-0.29074007151078163,0.019801260561359182
931,409.387764,7.93178081512451,-0.21427762508392,95.62142181396484,0.8928981119272663,-0.268006908650301,0.012661938612558161
932,409.396097,-1.24240338802338,-0.11079531908035,98.51898956298828,0.9252061649244662,-0.25604936541343265,0.014953404969098978
933,409.40443,-8.48799324035645,0.12230905145407,100.66400909423828,0.9583039186438733,-0.25993028465582446,0.020401035340465307
934,409.412763,-14.48329639434814,0.2921587228775,102.97785186767578,0.9870536959901142,-0.2509220522277214,0.028322722230638774
935,409.421096,-20.57778549194336,0.93679875135422,105.26077270507812,1.012230211374711,-0.23545155719834898,0.03630357433338571
936,409.42942899999997,-25.65976715087891,1.76522374153137,106.91427612304688,1.0379310530059194,-0.22665897194220097,0.04969919214443265
937,409.43776199999996,-28.25801467895508,2.74392986297607,108.098876953125,1.065080506461007,-0.22127560206821936,0.06469817185888468
938,409.44609499999996,-28.79755592346191,3.40821647644043,108.3291015625,1.082700320652553,-0.21847642197900918,0.07970975369823265
939,409.454428,-27.63296127319336,4.40106010437012,107.7912139892578,1.0877556703528581,-0.21600226966702243,0.09042160851614794
940,409.462761,-24.7629280090332,5.88385677337646,106.56746673583984,1.0902056402089642,-0.2101084650779255,0.10231274731305202
941,409.471094,-20.58252334594727,6.82323932647705,104.31324768066406,1.0765704330132928,-0.20609176888757857,0.10880196581081426
942,409.479427,-15.17821598052979,8.1505765914917,101.03937530517578,1.054669788905552,-0.2060560547575663,0.11618406188731326
943,409.48776,-9.74020290374756,9.45811080932617,96.85521697998048,1.0293075989703744,-0.20692338748854083,0.12450741261852039
944,409.496093,-4.01731634140015,10.90890502929688,91.98020935058594,1.0069903548882928,-0.20954723260840613,0.12600931586051428
945,409.50442599999997,1.56277346611023,12.60561847686768,87.01597595214844,0.9883177037141764,-0.2040319661704857,0.12932096208844898
946,409.51275899999996,6.1296648979187,14.56272983551025,81.60255432128906,0.984024612271056,-0.20357303473414182,0.13384044170379591
947,409.52109199999995,9.94369125366211,16.19135665893555,75.9797134399414,1.011517485793756,-0.20592545976444182,0.14154431771258877
948,409.529425,12.15394878387451,17.58051681518555,70.64136505126953,1.0553125459320691,-0.21674384876173364,0.15167564761881938
949,409.537758,12.70193290710449,18.06440925598145,65.11420440673828,1.108330901788205,-0.2284239992803459,0.16647511599015205
950,409.546091,11.73045349121094,17.83336067199707,59.72499847412109,1.1615389220568602,-0.2441775555513347,0.18157557565338775
951,409.554424,9.0806713104248,17.10782623291016,54.79169464111328,1.2093625749860488,-0.26343854106202447,0.1939624426316245
952,409.562757,5.38695526123047,15.99838161468506,50.20167541503906,1.2511879084061601,-0.2778238179732347,0.20394596518302446
953,409.57108999999997,1.34594130516052,14.38739204406738,45.92958068847656,1.2776749474661693,-0.2897209537272551,0.20876088920904692
954,409.57942299999996,-2.09517097473145,12.78744125366211,41.90660858154297,1.2800065838560766,-0.2957441125597275,0.20362777369362955
955,409.58775599999996,-5.17918014526367,11.25739574432373,37.32602691650391,1.259846881944306,-0.29777711751509695,0.20366384058582548
956,409.596089,-6.74866533279419,10.23950576782227,32.57751083374023,1.2288713455200193,-0.29299157006399995,0.19874921866825612
957,409.604422,-7.49921321868896,9.66354084014893,27.51548194885254,1.2081587071321447,-0.2802446910313194,0.18948117080999896
958,409.612755,-7.59454822540283,9.82416725158691,22.25871849060059,1.221479201803402,-0.2622477132446908,0.18338546460988572
959,409.621088,-6.97235059738159,10.25089740753174,17.04900741577148,1.2864325971019508,-0.2358182838984898,0.18348196331335612
960,409.629421,-5.89360618591309,10.30189228057861,12.16121768951416,1.3719449724469868,-0.22170188475628264,0.18466060258904285
961,409.637754,-4.68397283554077,8.95217514038086,7.2116756439209,1.4421155501385121,-0.2246011033350112,0.20000271651209592
962,409.64608699999997,-4.00983238220215,6.22884464263916,1.32693266868591,1.4738032282615194,-0.24053797429921633,0.22540625260800712
963,409.65441999999996,-3.40080189704895,3.73248076438904,-4.52741861343384,1.4855483113502967,-0.2532092892393776,0.24869733927201224
964,409.662753,-2.58237600326538,1.35594093799591,-9.8875560760498,1.4919846398489816,-0.2595478661206306,0.2567747174477092
965,409.671086,-1.31636703014374,-1.54403913021088,-15.3527135848999,1.4573839732578826,-0.26122545709415407,0.241334049069152
966,409.679419,0.23182174563408,-5.14176559448242,-21.15365219116211,1.3511931166356927,-0.2660793674235439,0.2269753631280398
967,409.687752,1.25336945056915,-8.14736938476562,-27.33868026733398,1.2011907538589162,-0.2721746113835551,0.2069060656489163
968,409.696085,1.14102566242218,-9.51076793670654,-33.67391586303711,1.0516219236412827,-0.2684540164713959,0.18246794233516733
969,409.704418,-0.55680304765701,-9.75205898284912,-40.53584289550781,0.9328402305135918,-0.26010875799217953,0.15860832467371122
970,409.71275099999997,-3.13562417030334,-9.21687889099121,-47.66244888305664,0.8607475125059785,-0.252472527173101,0.13705539460084898
971,409.72108399999996,-5.20866823196411,-8.22512435913086,-55.05130767822266,0.8391302459093989,-0.23613319105031527,0.12424068791525712
972,409.72941699999996,-7.55115413665771,-7.13490867614746,-62.39783096313477,0.863969666617257,-0.2189195156097408,0.11765213645234388
973,409.73775,-11.58595848083496,-6.39345645904541,-69.08763122558594,0.9265109470912388,-0.2207588419622306,0.11691907230688571
974,409.746083,-17.40883255004883,-6.97885274887085,-75.09900665283203,1.0117984304622725,-0.2422279241133714,0.13695725372859385
975,409.754416,-26.36715698242188,-8.94819831848145,-80.16090393066406,1.0898532672804222,-0.27007623594634383,0.15860396988537856
976,409.762749,-37.03661727905273,-11.70557498931885,-83.74766540527344,1.1623308609943,-0.29350302657302546,0.18331395120036834
977,409.771082,-49.00314712524414,-15.15659999847412,-85.45562744140625,1.2279881263265806,-0.3061946557492622,0.19697441130268364
978,409.779415,-60.15463256835938,-18.59380340576172,-86.0570297241211,1.275840292171556,-0.3072597056019061,0.191470773852601
979,409.78774799999997,-69.106689453125,-21.71454238891602,-85.38323211669922,1.2973071117790378,-0.2854198095749837,0.17470497257855508
980,409.79608099999996,-74.7237319946289,-24.51999092102051,-84.49925994873047,1.2877626808322202,-0.2558239138856224,0.14641241151459386
981,409.804414,-76.3581771850586,-26.68989944458008,-83.70227813720703,1.258955001831055,-0.22877153085202548,0.11803241408601121
982,409.812747,-75.3757553100586,-28.34380531311035,-83.8025894165039,1.218521351716956,-0.20723858658148367,0.09650280280989082
983,409.82108,-73.85977172851562,-29.43544578552246,-84.65943908691406,1.1697781815820805,-0.19535335959220407,0.07630595747305408
984,409.829413,-71.87528991699219,-30.17867851257324,-86.70674896240234,1.1200151638108855,-0.1783768741451959,0.06823522703988162
985,409.837746,-69.65966033935547,-30.86626052856445,-89.61540985107422,1.0680362156459264,-0.15536898252915407,0.05786882979529285
986,409.846079,-66.48552703857422,-31.08583641052246,-93.02597045898438,1.0165198968381295,-0.13268182472306836,0.048478336966767344
987,409.85441199999997,-62.04574584960938,-30.82605171203613,-97.01381683349608,0.9686745429525571,-0.1146990547374806,0.04310904412853469
988,409.86274499999996,-56.87713623046875,-30.17153167724609,-101.32421875,0.9301205070651305,-0.10109392355899387,0.04209010272609898
989,409.87107799999995,-51.03507614135742,-29.29441452026367,-105.5898208618164,0.899598257882254,-0.09603450492936734,0.036944360757360205
990,409.879411,-45.42052459716797,-28.38451957702637,-109.5901107788086,0.8832707697031449,-0.09598067220376427,0.047958374631647954
991,409.887744,-41.81646347045898,-27.41877555847168,-112.7761688232422,0.8742412255734816,-0.10700955682871326,0.045699294732541834
992,409.896077,-39.58161926269531,-26.56170463562012,-116.04581451416016,0.8677857262747631,-0.11943852414890203,0.0344903797519449
993,409.90441,-35.21145248413086,-25.5435619354248,-120.52737426757812,0.8656854045634367,-0.1206916205737051,0.02412510313549796
994,409.912743,-30.01477241516113,-24.93632698059082,-123.16351318359376,0.8599250170649315,-0.11056934084211122,0.019218295204395917
995,409.92107599999997,-28.34664154052734,-23.86279296875,-124.36483764648438,0.8605988171635836,-0.11589895705787549,0.02383760347658265
996,409.92940899999996,-28.18671035766602,-22.87115097045898,-125.54325103759766,0.8633234062973337,-0.13115455909651122,0.013006063444273469
997,409.93774199999996,-28.07685661315918,-22.35886764526367,-126.63382720947266,0.8669878512012713,-0.1341995292780347,0.01017146724827449
998,409.946075,-29.35116386413574,-21.81447982788086,-127.18988800048828,0.8647814575506714,-0.13050688772785407,0.004250484385661224
999,409.954408,-30.93274116516113,-21.3000373840332,-127.12506866455078,0.8661695402495715,-0.12820546724358367,-0.0035030018462214284
1000,409.962741,-32.42546463012695,-20.97383689880371,-126.89537048339844,0.8712657617062938,-0.12769612730765814,-0.00441168491937653
1001,409.971074,-34.24238204956055,-20.59860610961914,-126.14288330078124,0.8766685213361469,-0.12800779877876733,-0.008316774453435713
1002,409.979407,-36.29241943359375,-20.4770622253418,-124.88024139404295,0.8827399234382469,-0.12641539379042038,-0.014215216648821428
1003,409.98774,-38.46150207519531,-20.32316398620605,-122.94364166259766,0.8884827944697163,-0.12207036115685305,-0.014050228863345915
1004,409.99607299999997,-40.67991638183594,-20.24370002746582,-120.59471130371094,0.8936462596971163,-0.11898185525621734,-0.01995875671201837
1005,410.00440599999996,-42.75014877319336,-19.97714233398438,-117.77677917480467,0.9033565131985407,-0.11562033575408265,-0.022708647409264284
1006,410.01273899999995,-44.57991790771484,-19.80092620849609,-114.10858154296876,0.9155295819652325,-0.11299737862178263,-0.02749697590360816
1007,410.021072,-45.81293106079102,-19.84579467773438,-109.98249053955078,0.9220224497269612,-0.10885930791193163,-0.031219501884616325
1008,410.029405,-46.31821060180664,-19.52700614929199,-105.36895751953124,0.931458278578155,-0.10471950988380305,-0.030791686505687754
1009,410.037738,-46.35802841186523,-19.16382217407227,-99.97866821289062,0.9510673795427591,-0.09841083872075,-0.03562736572051531
1010,410.046071,-45.74599456787109,-18.97427749633789,-93.9232177734375,0.9664548173242683,-0.09840341246857959,-0.03676100044834387
1011,410.054404,-44.12554550170898,-18.71562957763672,-87.61780548095703,0.9869864522194377,-0.09337722646946836,-0.03272195859831224
1012,410.06273699999997,-41.93294525146484,-18.39178657531738,-80.78733825683594,1.0069122119825713,-0.09172451739408571,-0.0289718745922551
1013,410.07106999999996,-38.74948501586914,-18.18039703369141,-73.76702880859375,1.024837007327955,-0.09193183207998469,-0.019333006776109184
1014,410.07940299999996,-35.02408981323242,-18.04356956481934,-66.52922821044922,1.0380379034548388,-0.09376923648678571,-0.014977604150772447
1015,410.087736,-31.33779335021973,-17.86092185974121,-59.10870361328125,1.0449316063705756,-0.0954719039858602,-0.015898947508967344
1016,410.096069,-27.39090538024902,-17.51841354370117,-51.72181701660156,1.0430558846921336,-0.09612495801886733,-0.01813010445662857
1017,410.104402,-23.28142356872559,-16.7908763885498,-44.18950653076172,1.0462929278003927,-0.09475461074284183,-0.011793070909928571
1018,410.112735,-18.79214668273926,-15.91006565093994,-36.80080413818359,1.061246930336465,-0.08947867520001429,-0.020676077324517345
1019,410.121068,-13.89784049987793,-15.29226779937744,-30.0374641418457,1.0813542774745397,-0.07909785728065305,-0.017463114796853058
1020,410.129401,-8.8365592956543,-14.79700946807861,-23.66313934326172,1.1055955108331172,-0.07069155877950203,-0.01821314497869796
1021,410.13773399999997,-3.95099759101868,-14.5855598449707,-18.07751083374023,1.1285239823010498,-0.06909757852554285,-0.015954337253862246
1022,410.14606699999996,0.81784999370575,-14.34508991241455,-12.79882144927979,1.1532250229193244,-0.06575023641391632,-0.011015741192564285
1023,410.1544,4.44088220596313,-13.99248600006104,-7.79766750335693,1.1712194948780295,-0.06846000345385815,-0.006896815433793877
1024,410.162733,8.96932601928711,-13.9680233001709,-4.25736904144287,1.1492239699071765,-0.06195415647662448,0.000801371904660204
1025,410.171066,15.37268161773682,-13.40002727508545,-0.76455956697464,1.114181693719358,-0.02802610093233571,0.012527463995680612
1026,410.179399,21.5695915222168,-11.75241851806641,2.34499716758728,1.0844651047064335,-0.006341836130132653,0.014176890254020406
1027,410.187732,28.47140693664551,-9.77789402008057,4.38304662704468,1.0774325351325835,-7.378869946632653e-05,0.02063560090502959
1028,410.196065,35.02305603027344,-7.23173856735229,6.19922733306885,1.1084260745924346,0.0070176805768693866,0.021746798741574487
1029,410.20439799999997,40.83967590332031,-4.93742084503174,8.4812068939209,1.1779417310442244,0.017198707376207142,0.023070534273069383
1030,410.21273099999996,46.82082748413086,-2.8671989440918,10.45881175994873,1.25933870977285,0.023111180991542857,0.024546681314098977
1031,410.22106399999996,52.65663528442383,-1.60677230358124,12.27038955688477,1.3327426326518153,0.024160239465382653,0.020423628845992855
1032,410.229397,58.71712112426758,-0.60130894184113,14.15981292724609,1.3978172808277367,0.029136863898258165,0.01754323894880306
1033,410.23773,63.93540573120117,0.40985488891602,16.83649253845215,1.4527236198892397,0.032152770733346936,0.0010130955476540815
1034,410.246063,68.33551788330078,1.41770327091217,21.04240798950195,1.4772523179346202,0.03368540686003979,-0.01453767321547653
1035,410.254396,72.2541732788086,2.22770714759827,25.58292388916016,1.4427272640928928,0.02120433565305204,-0.03032018943708775
1036,410.262729,75.22140502929688,3.39341855049133,30.62635612487793,1.340700655567403,-0.004688086634387754,-0.02541655028352959
1037,410.271062,78.04956817626953,5.56413888931274,35.38148880004883,1.195922092515595,-0.031570010647481626,-0.011923397530097959
1038,410.27939499999997,79.1826400756836,8.7806978225708,39.88247299194336,1.0618896873629826,-0.05064342399032755,0.018439273140868368
1039,410.28772799999996,77.75362396240234,12.48293113708496,43.96785354614258,0.971366045426349,-0.07571244118164999,0.05523945604051836
1040,410.296061,73.9636001586914,15.52484226226807,46.70013046264648,0.9163251215097856,-0.11014198770328468,0.0944127233660949
1041,410.304394,67.81648254394531,17.55244445800781,47.77001190185547,0.896450159501056,-0.13488168619116936,0.13226108891623367
1042,410.312727,60.31843948364258,18.4373836517334,48.18588256835938,0.9110688190070948,-0.1397457658028112,0.15893778022454694
1043,410.32106,52.31984710693359,18.64522743225098,48.45879364013672,0.950747704019352,-0.1219534265751745,0.17404674267282244
1044,410.329393,44.22342681884766,17.61697959899902,48.55301666259766,1.0054642813546317,-0.1053416972257653,0.17912545982672246
1045,410.337726,36.31122970581055,15.69442272186279,48.87753677368164,1.0599911942773939,-0.11283564324281632,0.16766383939859794
1046,410.34605899999997,29.09354591369629,13.05525684356689,49.80517578125,1.1043219663658919,-0.12026817214732244,0.15743126674574284
1047,410.35439199999996,21.78705596923828,10.42282104492188,51.67823791503906,1.1217853001185825,-0.1250358503692,0.13888505040382856
1048,410.36272499999995,15.56774616241455,8.55794429779053,54.28102874755859,1.1212586383430325,-0.1391247705537449,0.1143693559023796
1049,410.371058,11.05051326751709,7.21206855773926,57.16091156005859,1.1121916284366529,-0.1459242008170306,0.09264874215028672
1050,410.379391,8.36603546142578,6.28798294067383,60.3061637878418,1.0849333782585295,-0.14109970355520407,0.06090941477795
1051,410.387724,7.96886110305786,6.00689268112183,63.44017028808594,1.0427635543200438,-0.13467313075552143,0.03568796478972143
1052,410.396057,9.67870903015137,6.14481496810913,66.35603332519531,0.9962475056550938,-0.13164404703646326,0.019527950457164284
1053,410.40439,13.17530345916748,6.52667760848999,68.84535217285156,0.9507893542854152,-0.12677595323445814,0.017725749283420408
1054,410.41272299999997,18.90940284729004,7.20306444168091,70.77413940429688,0.8996117844873541,-0.10904615022698265,0.027348551214958165
1055,410.42105599999996,24.71723747253418,8.31134986877441,72.03112030029297,0.846680135143047,-0.09856472818218978,0.03893233987749795
1056,410.42938899999996,30.10358810424805,9.69381141662598,72.97086334228516,0.8035294863642479,-0.10305851089711121,0.049286153243512244
1057,410.437722,34.70938873291016,10.88461589813232,73.98123931884766,0.7637743560635316,-0.10841032680200102,0.06479245667554898
1058,410.446055,38.58490371704102,12.29422092437744,75.35368347167969,0.7269749349477337,-0.10883294806188468,0.06252711524768775
1059,410.454388,45.88776016235352,14.31518173217773,76.52997589111328,0.6995717360048878,-0.08303191588849387,0.04951955408466122
1060,410.462721,54.66633605957031,17.00271415710449,78.13020324707031,0.6605385760871735,-0.06517215042698163,0.005180504249066326
1061,410.471054,72.91636657714844,25.91610717773438,76.14517974853516,0.6038546075626295,-0.013981295787558164,-0.13191540630496323
1062,410.479387,119.10668182373048,26.23677825927734,67.87261962890625,0.6570495877947122,0.09351277837947959,-0.07084629973586734
1063,410.48771999999997,148.50244140625,19.68188858032227,71.276123046875,0.7280527815526847,-0.07424665957081121,0.17303017937407245
1064,410.49605299999996,130.516845703125,12.55289936065674,79.15296936035156,0.8577343882346643,-0.5709254498384438,0.33872706549508264
1065,410.50438599999995,91.39539337158205,9.53085708618164,85.21845245361328,0.9064072005602776,-0.8545319888056541,0.37168439553708466
1066,410.512719,61.25737380981445,7.41723871231079,85.33402252197266,0.875425144117706,-0.6222652415839989,0.32188909394400506
1067,410.521052,44.9867057800293,4.43220043182373,92.19367218017578,0.7734271944785601,-0.20679391160303262,0.26291000599763875
1068,410.529385,43.09257125854492,7.17361879348755,97.02741241455078,0.7317492913226693,-0.07870093900330204,0.1471106373533908
1069,410.537718,49.69073486328125,8.10441017150879,101.9895248413086,0.811293465750558,-0.1717062264072653,0.10818548348485205
1070,410.546051,45.38770294189453,5.77882099151611,107.67444610595705,0.8774460578451347,-0.2844486431199673,0.08797646177058366
1071,410.55438399999997,26.26330184936523,4.37762880325317,114.92706298828124,0.8831152624013469,-0.3189264754859765,0.06816121388454796
1072,410.56271699999996,-1.30385756492615,3.07897186279297,118.9521026611328,0.9081495051481285,-0.3443010485902122,0.028263509881739795
1073,410.57104999999996,-28.63422584533691,1.18403363227844,119.13513946533205,0.9434651355354152,-0.34938632225503774,0.004359730424321428
1074,410.579383,-47.25630569458008,1.14108002185822,121.29970550537108,0.9579664347123122,-0.28721369042688466,-0.010872459685316326
1075,410.587716,-59.55434799194336,4.44680833816528,124.63758087158205,0.9733445303780693,-0.22531735653779897,-0.018916516279687753
1076,410.596049,-65.7494125366211,7.08125829696655,126.00762176513672,1.0193620409284314,-0.2223874111564796,-0.013812292291193877
1077,410.604382,-69.8111343383789,8.53825378417969,126.68150329589844,1.0575114464273254,-0.24017869209756632,0.016805344090169386
1078,410.612715,-75.4656753540039,9.77852535247803,126.63690185546876,1.0792253455337215,-0.26269080687542345,0.05054173420886632
1079,410.621048,-81.1995849609375,11.0081148147583,126.04356384277344,1.0915854512428753,-0.26589452003946124,0.08158267152552652
