,timestamp,GyrY,GyrX,GyrZ,AccY,AccX,AccZ
164,403.004686,0.77539414167404,1.87079954147339,-0.6498715877533,0.43856450489589177,0.0785217601425796,0.9264184990707702
165,403.013019,0.82964497804642,1.84879696369171,-0.69510620832443,0.43914527309184176,0.08047366020630815,0.9254720259685907
166,403.021352,0.77452319860458,1.87497472763062,-0.73834306001663,0.4388268139897561,0.08099409998679694,0.9237067553461815
167,403.029685,0.83061844110489,1.98790800571442,-0.62981563806534,0.4389482128376867,0.07996678352355918,0.9281981721216316
168,403.03801799999997,0.66579079627991,1.85561048984528,-0.61598390340805,0.4397420980492418,0.08046547977291836,0.9224078120017539
169,403.04635099999996,0.72311544418335,1.80888986587524,-0.74149364233017,0.4399567720841387,0.07970148811535,0.9209188149899857
170,403.054684,0.68638461828232,1.8652411699295,-0.68693536520004,0.4396345177475286,0.08034487159884693,0.9223393031529019
171,403.063017,0.67595964670181,1.85993909835815,-0.65832424163818,0.44153388665646937,0.08128099903768468,0.9240969833062622
172,403.07135,0.70971918106079,1.76565325260162,-0.65637755393982,0.4404672797845337,0.07935058097450101,0.9246042796543662
173,403.079683,0.69429939985275,1.81777822971344,-0.61887830495834,0.44000771580910203,0.08056901547373571,0.9192832635373488
174,403.088016,0.75710552930832,1.84597969055176,-0.64290452003479,0.4403447131721336,0.08192596995100714,0.9231723084741714
175,403.096349,0.74680864810944,1.88053297996521,-0.68301635980606,0.44060726555026325,0.08114670612374081,0.9256280198389173
176,403.10468199999997,0.69178926944733,1.83063650131226,-0.71096152067184,0.44085025787353466,0.08213058418157142,0.9214657180163326
177,403.11301499999996,0.683618247509,1.83978080749512,-0.57046741247177,0.4405562731684469,0.08079529416804387,0.9231264737187601
178,403.12134799999995,0.70352053642273,1.82697355747223,-0.55036020278931,0.44043083580172754,0.0800666638783051,0.9211513947467418
179,403.129681,0.7583349943161,1.74954187870026,-0.59772098064423,0.4388689021674959,0.08167297864446836,0.921189639033103
180,403.138014,0.75569671392441,1.75148844718933,-0.49462369084358,0.4401634177383112,0.08137267463061224,0.9250425805850908
181,403.146347,0.69076466560364,1.70607447624207,-0.72095102071762,0.4412984361453928,0.08298429299373979,0.9244757282490632
182,403.15468,0.64155972003937,1.70589518547058,-0.62149095535278,0.4391296055852153,0.08041745545912754,0.925872179926658
183,403.163013,0.65067845582962,1.7410124540329,-0.6101438999176,0.4409366237873939,0.07965243592554183,0.9212154271651285
184,403.17134599999997,0.67852109670639,1.78038156032562,-0.69648957252502,0.4399748237765561,0.08169555542420408,0.9219383706851877
185,403.17967899999996,0.72585618495941,1.79201030731201,-0.65852916240692,0.4407649624104398,0.08052682390018366,0.9250863717526805
186,403.18801199999996,0.71397119760513,1.7839161157608,-0.6207737326622,0.43908571710391936,0.07978607197197143,0.9233414396947746
187,403.196345,0.745809674263,1.81157946586609,-0.56145119667053,0.44041293007986837,0.08046481074119081,0.9221519742693225
188,403.204678,0.6790845990181,1.85637879371643,-0.63609111309052,0.4396141305261724,0.08270421806646837,0.9250991198481346
189,403.213011,0.80362099409103,1.83217346668243,-0.65655690431595,0.44109174183436833,0.0814923218318398,0.9231889491178551
190,403.221344,0.78645944595337,1.85886335372925,-0.64728450775146,0.44243452500323877,0.08034655634237754,0.9220322784112427
191,403.229677,0.79588544368744,1.80666148662567,-0.67592126131058,0.44012171881539486,0.08086724548923775,0.9224093690210459
192,403.23801,0.74119913578033,1.81047821044922,-0.67922556400299,0.4392723161347061,0.08190460959259387,0.9240244845954734
193,403.24634299999997,0.77203863859177,1.72134053707123,-0.56232208013535,0.44220311301095094,0.07916643911478469,0.9230238077591878
194,403.25467599999996,0.7538269162178,1.72338974475861,-0.61157822608948,0.43998533365677855,0.0792385850633898,0.9225047364526866
195,403.26300899999995,0.74545109272003,1.75919842720032,-0.63765352964401,0.44031250233552854,0.07989510589716428,0.9215145694966212
196,403.271342,0.7660961151123,1.70784187316895,-0.68885636329651,0.440667113479303,0.08079310460966428,0.922626670525999
197,403.279675,0.67542177438736,1.73453211784363,-0.73337399959564,0.43965592676279486,0.08074345637340917,0.922477099360252
198,403.288008,0.67403864860535,1.77333760261536,-0.5810974240303,0.43979717760669895,0.08090140259995714,0.9234798197843592
199,403.296341,0.72060525417328,1.79818332195282,-0.6028950214386,0.4388855914680326,0.0806053074038755,0.9239732002725408
200,403.304674,0.67537051439285,1.86147606372833,-0.67886692285538,0.44060069687512443,0.0811240320303,0.9231459364599113
201,403.31300699999997,0.82239627838135,1.74423980712891,-0.66068077087402,0.44073440590683266,0.08009886863280305,0.921618305906957
202,403.32133999999996,0.75989747047424,1.75417792797089,-0.74013608694077,0.441153973949199,0.08231225062389795,0.9221109078854928
203,403.32967299999996,0.67857229709625,1.86967253684998,-0.71129447221756,0.4385386681070132,0.08082398954702856,0.9256469960115397
204,403.338006,0.67140030860901,1.95683789253235,-0.73281043767929,0.4398798455997387,0.08221985734238878,0.9233218796399172
205,403.346339,0.68602603673935,1.72328722476959,-0.63486158847809,0.44117528565075914,0.08070762668337142,0.9258142782717336
206,403.354672,0.62491047382355,1.79080641269684,-0.62325835227966,0.4393323586911571,0.08276938783879183,0.9243521398427531
207,403.363005,0.65802973508835,1.76519227027893,-0.61273092031479,0.44003175229442343,0.07963037004276224,0.9249761153240591
208,403.371338,0.63869088888168,1.82968878746033,-0.71505969762802,0.4407551823830122,0.08012053917865407,0.9234711588645469
209,403.379671,0.72483164072037,1.91636753082275,-0.65025585889816,0.44048820223127144,0.08002787828445408,0.9222069565130734
210,403.38800399999997,0.74629640579224,1.79818344116211,-0.67159247398376,0.43849974262471114,0.08120513083983469,0.9222633011487061
211,403.39633699999996,0.63154458999634,1.88578391075134,-0.64951300621033,0.4367698455343438,0.07945612377049999,0.9258851226495234
212,403.40467,0.73113268613815,1.94610559940338,-0.80427408218384,0.44130417765403257,0.08028512706561938,0.9258894044525765
213,403.413003,0.68851053714752,1.80430507659912,-0.66493266820908,0.43983104277630203,0.08098549380594387,0.9243149660071551
214,403.421336,0.76263821125031,1.81357741355896,-0.73370695114136,0.4387215692169816,0.08215406111308468,0.9265790666852672
215,403.429669,0.60203701257706,1.77310705184937,-0.67120832204819,0.439117538685701,0.08027188631953061,0.9237849955656092
216,403.438002,0.63364487886429,1.80502223968506,-0.56165605783463,0.44005413444674685,0.08010545555426123,0.9255116326468326
217,403.446335,0.72969824075699,1.83504223823547,-0.68519353866577,0.44108775197243166,0.08031522741123164,0.9223769635570296
218,403.45466799999997,0.70797753334045,1.75553560256958,-0.62402677536011,0.4415233281193949,0.08017651280578265,0.923817109088508
219,403.46300099999996,0.76863199472427,1.71529579162598,-0.69415855407715,0.4396294087779765,0.08146147946922143,0.9229368093062418
220,403.47133399999996,0.67344951629639,1.73919367790222,-0.63186472654343,0.43941244787099387,0.07946996664514387,0.9250925998298488
221,403.479667,0.68758845329285,1.73337924480438,-0.63498967885971,0.44036573293257747,0.08054869515555203,0.9247710753460315
222,403.488,0.78804761171341,1.64106559753418,-0.56362843513489,0.4418042241310592,0.08131694428774795,0.9226195666254784
223,403.496333,0.69957596063614,1.76775348186493,-0.671746134758,0.4416212257073847,0.08337930148961632,0.9245635052116551
224,403.504666,0.70252156257629,1.84139442443848,-0.75089401006699,0.43854105229280405,0.08084135396139999,0.923788206917899
225,403.512999,0.72775161266327,1.6910902261734,-0.6642923951149,0.4414400762441204,0.08136821036436122,0.9251722997548631
226,403.521332,0.77352440357208,1.65930306911469,-0.68550103902817,0.438532537343551,0.08134806642726938,0.9248015345359336
227,403.52966499999997,0.66878765821457,1.69516277313232,-0.78280937671661,0.4398424284798754,0.08206312753716326,0.9262416800674121
228,403.53799799999996,0.78899520635605,1.7606840133667,-0.70714497566223,0.4399669900232428,0.07962835686547448,0.9249051736325631
229,403.546331,0.73346364498138,1.73993670940399,-0.6904188990593,0.4387480872018,0.08134594377206326,0.9234993798392163
230,403.554664,0.77539420127869,1.79454624652863,-0.6835030913353,0.4388042372100203,0.08252095203010407,0.9262487839679326
231,403.562997,0.67657434940338,1.70504987239838,-0.7328616976738,0.44103140733679896,0.08219537078117857,0.923307282584054
232,403.57133,0.7247034907341,1.80141055583954,-0.66593164205551,0.4398782399235938,0.08078232711675204,0.9253029920616928
233,403.579663,0.69327485561371,1.85381734371185,-0.70586425065994,0.4378483733352347,0.08067907727494489,0.924807762613102
234,403.587996,0.76135748624802,1.81826484203339,-0.57802361249924,0.4402889037618837,0.08077778378311429,0.9253214816657868
235,403.59632899999997,0.65239459276199,1.87336099147797,-0.733373939991,0.43967227546536225,0.08033889897015611,0.921358672940001
236,403.60466199999996,0.68807518482208,1.88053297996521,-0.66198712587357,0.43977192470005616,0.08096665143966632,0.9220719824031907
237,403.61299499999996,0.76181852817535,1.88732087612152,-0.63165980577469,0.44025158395572545,0.08177788281927346,0.9236203407754703
238,403.621328,0.67795753479004,1.81946873664856,-0.7179029583931,0.44134125417592546,0.08060333071922754,0.9241537171967174
239,403.629661,0.72057968378067,1.76245152950287,-0.71849209070206,0.44174228395734483,0.08076570471938775,0.922565946773607
240,403.637994,0.73243910074234,1.79454624652863,-0.73947024345398,0.4404715129307336,0.08135457428134182,0.9195138970199898
241,403.646327,0.72703444957733,1.76004362106323,-0.71447062492371,0.4402920664573204,0.07830327870894489,0.9240703193508847
242,403.65466,0.85469579696655,1.72344100475311,-0.62100428342819,0.4409323419843397,0.08051032922705816,0.9231760063949898
243,403.662993,0.72111749649048,1.73020303249359,-0.64141887426376,0.4398649079459051,0.08184926850455101,0.9231793150609856
244,403.67132599999997,0.67872595787048,1.79083204269409,-0.60788983106613,0.44066317227421936,0.07917137778535203,0.9241820354850928
245,403.67965899999996,0.70139461755753,1.73214995861053,-0.73706239461899,0.4409037317548479,0.08030922437200715,0.925853495695153
246,403.687992,0.8071813583374,1.70756006240845,-0.61664986610413,0.44053179877145,0.08064650151194387,0.9216854523639285
247,403.696325,0.67928946018219,1.71391236782074,-0.57956045866013,0.4411152430943081,0.08192285591242243,0.9236305587145744
248,403.704658,0.66141080856323,1.82400262355804,-0.67095214128494,0.4411521249887898,0.07963675017259592,0.9244792315424702
249,403.712991,0.80590063333511,1.77830684185028,-0.66360080242157,0.4407797540937153,0.07944491444801835,0.9221079884743203
250,403.721324,0.68177407979965,1.65546071529388,-0.68363106250763,0.4377546602365918,0.08164615655431938,0.9220756803240091
251,403.729657,0.67002993822098,1.85667335987091,-0.64499199390411,0.4399216904932142,0.07955387538793163,0.922985174218003
252,403.73798999999997,0.81501930952072,1.82935583591461,-0.60407328605652,0.43987746141394796,0.07968575370554999,0.9245094961049601
253,403.74632299999996,0.63513052463531,1.66673099994659,-0.73019778728485,0.43888841356549896,0.08196579558508775,0.9216674493283643
254,403.75465599999995,0.62001818418503,1.79339337348938,-0.61972361803055,0.4400113650730673,0.07998102173513265,0.9249691087372448
255,403.762989,0.75188022851944,1.70781624317169,-0.61913448572159,0.4403132321883224,0.08025379813447245,0.9238229479108541
256,403.771322,0.62199050188065,1.84859216213226,-0.58061075210571,0.43957082592711116,0.08392212342242755,0.9245588341537785
257,403.779655,0.72485721111298,1.67405664920807,-0.68186378479004,0.44105622233176733,0.08131195696032754,0.9245476430776162
258,403.787988,0.65867006778717,1.72356903553009,-0.64116269350052,0.4407774672216296,0.07978921642108877,0.9225962113360968
259,403.796321,0.55134636163712,1.63870894908905,-0.67692011594772,0.4380696647021234,0.08340009013000817,0.9190496133298286
260,403.80465399999997,0.65915668010712,1.65013301372528,-0.6933901309967,0.43926141699966115,0.07876460649529285,0.9221876883993346
261,403.81298699999996,0.63976669311523,1.70932745933533,-0.67574191093445,0.44115202767508366,0.08236725719607652,0.9246561478595345
262,403.82131999999996,0.61243629455566,1.75924956798553,-0.66267865896225,0.44051510947091216,0.08142890370621939,0.9272023609706337
263,403.829653,0.60554605722427,1.74257481098175,-0.61859655380249,0.43955554767530813,0.07981013278571938,0.9244973318917408
264,403.837986,0.50603485107422,1.66130089759827,-0.61247479915619,0.4379476819719591,0.07994316062148775,0.9274759097975122
265,403.846319,0.68251687288284,1.83217334747314,-0.66933840513229,0.4398570741925918,0.07817064012799897,0.923799203366649
266,403.854652,0.67839294672012,1.57610785961151,-0.58050817251205,0.4386520872310714,0.08314275619935,0.9201361208545917
267,403.862985,0.58482420444489,1.75084817409515,-0.57313132286072,0.43923957007271935,0.07904923083830816,0.9218368724900846
268,403.871318,0.72916036844254,1.83867931365967,-0.6954904794693,0.43775300590359384,0.08058940877719795,0.9215065897727499
269,403.87965099999997,0.65119069814682,1.80005300045013,-0.72018259763718,0.4381174457316499,0.08252988664471327,0.923163550240653
270,403.88798399999996,0.6249361038208,1.85217809677124,-0.66237133741379,0.43983936309814486,0.08015807794064898,0.9259293030719367
271,403.89631699999995,0.75321227312088,1.75822532176971,-0.60279262065887,0.4395244559463194,0.07984749516662244,0.924314868693449
272,403.90465,0.74565601348877,1.73924517631531,-0.61239802837372,0.44064361221936327,0.08106502951407958,0.9235858917236326
273,403.912983,0.6161248087883,1.9157782793045,-0.67712503671646,0.4400635738762061,0.08199129177599489,0.9237228121076316
274,403.921316,0.67275792360306,1.71401488780975,-0.67766296863556,0.4393210703012898,0.08089488866377856,0.9245874443832702
275,403.929649,0.78430777788162,1.80842900276184,-0.67079830169678,0.4400245024233449,0.08140097467266734,0.9210103871871009
276,403.937982,0.69581061601639,1.72108447551727,-0.58929389715195,0.440044062478202,0.08046681783637244,0.9249334919209388
277,403.94631499999997,0.62847089767456,1.888627409935,-0.74884504079819,0.438760737983548,0.08129285306346631,0.9243322878467795
278,403.95464799999996,0.65364962816238,1.83168661594391,-0.63319671154022,0.4399820249907826,0.08257764942792041,0.9258989411957408
279,403.96298099999996,0.66755813360214,1.88726961612701,-0.68278586864471,0.43980442747777854,0.08081113197365611,0.9216319298257633
280,403.971314,0.62549960613251,1.77136516571045,-0.66498392820358,0.44009203813513975,0.08157439377843163,0.924893982556401
281,403.979647,0.64486396312714,1.85589218139648,-0.69835931062698,0.4380986641864387,0.08262076548167653,0.9252135607661031
282,403.98798,0.6654834151268,1.76601183414459,-0.74059718847275,0.43887118903958056,0.08280210957235203,0.9208291890669847
283,403.996313,0.66261464357376,1.76652407646179,-0.64333993196487,0.43788467134748155,0.08185746718426122,0.9240978591296132
284,404.004646,0.70334124565125,1.67080366611481,-0.69797503948212,0.44083128170091324,0.07989542216670714,0.9242033471866529
285,404.012979,0.73264396190643,1.74406039714813,-0.61821240186691,0.4396466333038949,0.08059668905881019,0.9261148803088133
286,404.02131199999997,0.66264027357101,1.826819896698,-0.65350878238678,0.4390164297454214,0.0802095082341408,0.9247939440668846
287,404.02964499999996,0.77280706167221,1.72041845321655,-0.67589563131332,0.4387309599895867,0.08027342509250203,0.9262896557243498
288,404.037978,0.8111515045166,1.78081679344177,-0.71539270877838,0.43996840107197654,0.08018808705466123,0.9227056892550725
289,404.046311,0.75792521238327,1.69321608543396,-0.7381893992424,0.43900358433626124,0.08067862111694998,0.9254836062995754
290,404.054644,0.80295503139496,1.73243153095245,-0.69794940948486,0.43790846454853877,0.08181425989890612,0.9260367374030907
291,404.062977,0.71904277801514,1.80399775505066,-0.74187791347504,0.4368126149080235,0.08063344322905204,0.9233810463730173
292,404.07131,0.77667486667633,1.7589168548584,-0.7101930975914,0.4386845413519408,0.08035297296485101,0.9246393125884387
293,404.079643,0.74135285615921,1.86744439601898,-0.64515852928162,0.4391617677649673,0.08008335926094795,0.9230181635642539
294,404.08797599999997,0.69860261678696,1.85758292675018,-0.81313669681549,0.44213363102504183,0.07920846647145816,0.9242156087135786
295,404.09630899999996,0.77247399091721,1.91406214237213,-0.71139693260193,0.4394947266092102,0.08107322211168265,0.9230314955419429
296,404.10464199999996,0.73474431037903,1.8658561706543,-0.67745810747147,0.43869952766262754,0.07939936555161735,0.9221934299079734
297,404.112975,0.74294084310532,1.85794126987457,-0.86961609125137,0.4401926605068908,0.08005496798729386,0.9216551878014387
298,404.121308,0.66827541589737,1.86670160293579,-0.73293852806091,0.4389289933808,0.0795432742761102,0.9234076130146888
299,404.129641,0.79775530099869,1.76926481723785,-0.71562325954437,0.4392414190331285,0.08029406168022958,0.9275532741935887
300,404.137974,0.62127327919006,1.94938409328461,-0.73529493808746,0.44018263719519796,0.0810588744221898,0.9217291462178132
301,404.146307,0.75252062082291,1.96587979793549,-0.71083348989487,0.4390922371222051,0.07961278667255305,0.9257980268828724
302,404.15464,0.70731139183044,1.99592518806458,-0.65204870700836,0.4392351422991071,0.08138598836198163,0.9214038264994714
303,404.16297299999997,0.62032550573349,1.85202443599701,-0.60338169336319,0.43988339754999894,0.08131250434992243,0.9277648341899021
304,404.17130599999996,0.65884935855865,1.77159571647644,-0.66208952665329,0.44149982685945505,0.08035712096155918,0.9218116682402937
305,404.179639,0.68653827905655,1.84559524059296,-0.73514133691788,0.4407055523930765,0.08070401391204489,0.9225275078598337
306,404.187972,0.66827535629272,1.94047045707703,-0.7075035572052,0.4424439157758438,0.08119722410124183,0.9246093399670662
307,404.196305,0.72713696956635,1.79234349727631,-0.6835030913353,0.43826925511262854,0.08085934483275102,0.9265092927582408
308,404.204638,0.68707621097565,1.81529355049133,-0.61606079339981,0.4385747714918489,0.08330089705331019,0.9258252747204836
309,404.212971,0.72498536109924,1.82617974281311,-0.67033731937408,0.44000382326087145,0.08216539207769898,0.9214731138579704
310,404.221304,0.61965948343277,1.90240752696991,-0.62133729457855,0.4396511097343602,0.08071237680863368,0.9240971779336734
311,404.22963699999997,0.70234221220016,1.96716046333313,-0.69554167985916,0.4395620676935939,0.07990042774044692,0.9246388260199102
312,404.23796999999996,0.73638367652893,1.81946897506714,-0.72471642494202,0.4386121886117122,0.0796569245202204,0.9267824523302969
313,404.24630299999995,0.67398726940155,1.83437621593475,-0.72348684072495,0.4401483827707714,0.07985225745609795,0.9235704188444173
314,404.254636,0.75129115581512,1.84008836746216,-0.57561588287354,0.4407983896683673,0.0811429048071102,0.9243170095949754
315,404.262969,0.68331098556519,1.82264471054077,-0.60666042566299,0.43928910274894895,0.08225237228432448,0.924164421704351
316,404.271302,0.7431458234787,1.84369969367981,-0.65614706277847,0.43830886179087136,0.07989586616048978,0.9246626678778204
317,404.279635,0.85246735811234,1.82835698127747,-0.83752155303955,0.44139944777196727,0.08060368956351735,0.9232052005067163
318,404.287968,0.73333561420441,1.88703918457031,-0.6467210650444,0.4383281299046112,0.07918982481469897,0.921514180241799
319,404.29630099999997,0.71046203374863,1.92161846160889,-0.60115331411362,0.4381115095955989,0.08061328712774796,0.9203281207960479
320,404.30463399999996,0.69112324714661,1.88744914531708,-0.61539483070374,0.43869548914383877,0.08051731148544591,0.9240697354686499
321,404.31296699999996,0.67890530824661,1.73939859867096,-0.60112762451172,0.4404798819094285,0.08105620437738877,0.9237498653178315
322,404.3213,0.71627640724182,1.70005512237549,-0.69802629947662,0.4399372606861347,0.08141976838209182,0.9256993507852357
323,404.329633,0.68346458673477,1.56619513034821,-0.7152646780014,0.44000124444766936,0.08017668918687448,0.9267626976480285
324,404.337966,0.80003499984741,1.80842900276184,-0.65699225664139,0.43872108264845205,0.08089948673637551,0.9240049245406173
325,404.346299,0.73582005500793,1.85176825523376,-0.71833837032318,0.43908800397600406,0.08002624827988265,0.9209904378774214
326,404.354632,0.69765490293503,1.76388585567474,-0.62167024612427,0.4397013722633826,0.08245811170461223,0.9244785503465305
327,404.362965,0.66430526971817,1.8574036359787,-0.66713565587997,0.4399258749825612,0.08122083483910102,0.925338706191705
328,404.37129799999997,0.75935965776443,1.84472441673279,-0.72046440839767,0.43935230800083663,0.0818080987249102,0.9229406045407662
329,404.37963099999996,0.76545578241348,1.86150169372559,-0.75304561853409,0.43932603330028264,0.08334795431214896,0.9243074728518111
330,404.38796399999995,0.7098217010498,1.95120298862457,-0.73921406269073,0.43978720295185914,0.08103185770462959,0.9252774958707846
331,404.396297,0.70339244604111,1.96926069259644,-0.74297934770584,0.4386734962463378,0.07977067816014183,0.9262042142906969
332,404.40463,0.79141581058502,1.91384446620941,-0.64322471618652,0.43978087756098566,0.08173515602033979,0.9222651501091162
333,404.412963,0.79263246059418,1.85970854759216,-0.67028605937958,0.44064711551277036,0.08107457842145611,0.9214989993037009
334,404.421296,0.7322084903717,1.71437346935272,-0.73736977577209,0.43891707245184486,0.08082736511619694,0.923360610494808
335,404.429629,0.82557243108749,1.85279273986816,-0.70366138219833,0.4394199410263377,0.07993944445434897,0.920149744773398
336,404.43796199999997,0.71094882488251,1.86288499832153,-0.68160766363144,0.43815549539059995,0.08256428703969795,0.9253343270749459
337,404.44629499999996,0.77073234319687,1.85686552524567,-0.68780618906021,0.4406132503431673,0.08076017000237244,0.9290696163566744
338,404.45462799999996,0.67893087863922,1.8090181350708,-0.66992741823196,0.438931572194002,0.0813179174248051,0.9225173872344345
339,404.462961,0.7469111084938,1.81040120124817,-0.6720022559166,0.4421272083204622,0.0794000710759847,0.9226034125503224
340,404.471294,0.71307468414307,1.82133853435516,-0.75927001237869,0.43955481782251427,0.07896257298333265,0.9238240183616172
341,404.479627,0.75969254970551,1.90489220619202,-0.58473455905914,0.44184830723976626,0.08076265758397652,0.9214100545766398
342,404.48796,0.65674895048141,1.76101696491241,-0.64536345005035,0.44130145287027145,0.08208551577159286,0.925418989998954
343,404.496293,0.65690261125565,1.7772308588028,-0.65489196777344,0.4387748971277357,0.08034031001888979,0.9240963994240275
344,404.504626,0.55933803319931,1.89036881923676,-0.61529231071472,0.4389537597189143,0.08206332216457449,0.920159184202856
345,404.51295899999997,0.78587031364441,1.76524329185486,-0.59905290603638,0.43782034698797756,0.07878750562667856,0.922498216434401
346,404.52129199999996,0.65431553125381,1.93972742557526,-0.73160648345947,0.4415823975387887,0.08347059390982754,0.9240559169224326
347,404.529625,0.68561625480652,1.82694792747498,-0.69126415252686,0.4383470574203806,0.08154851441480714,0.9235039535833865
348,404.537958,0.78715097904205,1.84754180908203,-0.57310563325882,0.4393580981663296,0.08209710218468469,0.9237676737259847
349,404.546291,0.75651639699936,1.73647856712341,-0.69600278139114,0.4395897534428806,0.07936831639737449,0.9251005795537203
350,404.554624,0.84785676002502,1.67387735843658,-0.7339374423027,0.43906547585312244,0.08144839685790409,0.9227917145709601
351,404.562957,0.8128165602684,1.77869081497192,-0.65473824739456,0.43986933571951736,0.07939262657749388,0.9259063370373786
352,404.57129,0.79358017444611,1.58461177349091,-0.67415380477905,0.44003622872488873,0.0820028903533,0.9261138098580499
353,404.57962299999997,0.7135101556778,1.74677550792694,-0.65663367509842,0.4387766487744388,0.08207004897448468,0.9220870660275826
354,404.58795599999996,0.76627540588379,1.70008075237274,-0.59828442335129,0.4405029452576928,0.07922178020282652,0.9258429858149315
355,404.59628899999996,0.83487033843994,1.53486907482147,-0.69848740100861,0.4391994768259479,0.07789523017649795,0.9236104147774835
356,404.604622,0.73479557037354,1.6187299489975,-0.72463947534561,0.43981206660367955,0.08098626623348265,0.9234996717803335
357,404.612955,0.88110411167145,1.53947961330414,-0.69193017482758,0.44183847855548464,0.07901729977860714,0.9252191076473315
358,404.621288,0.94818770885468,1.61155807971954,-0.66582918167114,0.4395154544285367,0.08242402757917143,0.9205170066989193
359,404.629621,0.73658847808838,1.7257719039917,-0.70676076412201,0.43928122033878264,0.08031887667519694,0.9233111751322847
360,404.637954,0.7713982462883,1.60868918895721,-0.56186103820801,0.43883737252683064,0.08028575960470714,0.9219537462506978
361,404.646287,0.75418555736542,1.58284437656403,-0.61892956495285,0.43826443808419385,0.08154089961733162,0.9226068185300245
362,404.65461999999997,0.64453095197678,1.64872419834137,-0.66672569513321,0.440156508465202,0.07927788155419489,0.9249240524914796
363,404.66295299999996,0.78961002826691,1.61171162128448,-0.61787933111191,0.4388506071908132,0.07905510007118673,0.9229346684047152
364,404.671286,0.77711027860641,1.766805768013,-0.70758038759232,0.43820123283230505,0.08038282394409184,0.9252293255864357
365,404.679619,0.76663410663605,1.76885521411896,-0.66646963357925,0.44189161183882747,0.08159428834915204,0.9199270910146284
366,404.687952,0.7909163236618,1.75000286102295,-0.61885273456573,0.43895283523871015,0.0813329341460245,0.921699368223852
367,404.696285,0.80123889446259,1.7479795217514,-0.666444003582,0.43973747564821836,0.08303128943151326,0.9240479371985612
368,404.704618,0.74022573232651,1.80476582050323,-0.63089138269424,0.43723208563668364,0.08170736079313366,0.9217003413609092
369,404.712951,0.77611130475998,1.9200302362442,-0.61157822608948,0.4396822987770551,0.08222498455826122,0.9248187590618521
370,404.72128399999997,0.71732664108276,1.74516177177429,-0.5548939704895,0.43954863840219893,0.08113384246826122,0.9253136965693254
371,404.72961699999996,0.76502031087875,1.82520627975464,-0.66985064744949,0.43867159862907545,0.08053530843890408,0.9250619460125357
372,404.73794999999996,0.80226343870163,1.93934321403503,-0.76172888278961,0.4381143316930653,0.07932566258372142,0.9244330075322367
373,404.746283,0.73177301883698,1.89585030078888,-0.72479313611984,0.4388260354801102,0.07893253345878776,0.9221442864865672
374,404.754616,0.63044321537018,1.83578515052795,-0.71247279644012,0.4393553733825683,0.07932606400275714,0.9235317853032325
375,404.762949,0.63789695501328,1.87707543373108,-0.62118369340897,0.43928321526975,0.07885773571170102,0.9245504651750837
376,404.771282,0.68666648864746,1.66696155071259,-0.63073772192001,0.43948129731781627,0.07996426553142347,0.9227245681139887
377,404.779615,0.63482320308685,1.74380421638489,-0.64159816503525,0.43967826025826634,0.08206018987967041,0.9247406161561306
378,404.787948,0.65344476699829,1.66240239143372,-0.5573273897171,0.4386809894016806,0.08001457671729897,0.9260409218924387
379,404.79628099999996,0.7335147857666,1.79662084579468,-0.61390912532806,0.44042256413673875,0.08203535055627653,0.9252486910138816
380,404.80461399999996,0.788201212883,1.74828672409058,-0.5650115609169,0.4377612289117306,0.07969515664236836,0.9225534906192703
381,404.812947,0.66681534051895,1.79349589347839,-0.5199049115181,0.43915670745226837,0.08089820949398775,0.9242330278669081
382,404.82128,0.73546147346497,1.76547396183014,-0.49272820353508,0.4375421757600744,0.08083226729412449,0.9248454230172295
383,404.829613,0.618532538414,1.84469878673553,-0.74151927232742,0.43962639205309795,0.0806876165526255,0.9228303481121448
384,404.837946,0.61740559339523,1.75284612178802,-0.62873977422714,0.43991862511148266,0.0823409764134153,0.9276214911013234
385,404.846279,0.75277674198151,1.8486944437027,-0.68168443441391,0.43926117371539686,0.08003098015882551,0.9262028518988162
386,404.854612,0.64114987850189,1.67193078994751,-0.60655790567398,0.4374921565153163,0.08206888729212244,0.9232279719138632
387,404.86294499999997,0.6721431016922,1.77328622341156,-0.67008113861084,0.43856576997406627,0.07995043482099284,0.9253665379115509
388,404.87127799999996,0.68272179365158,1.86726486682892,-0.72545915842056,0.43954459988341016,0.08008099332147754,0.9266669409615652
389,404.87961099999995,0.74885773658752,1.9973338842392,-0.57658916711807,0.43986515123016934,0.08265205792018367,0.9232889876073723
390,404.887944,0.72503656148911,1.77464377880096,-0.60591757297516,0.43814469356926117,0.08102355562910714,0.9232539546733
391,404.896277,0.56056755781174,1.75238502025604,-0.67797034978867,0.438273877513652,0.08116804823583469,0.9225135919999101
392,404.90461,0.66576516628265,1.72697567939758,-0.58860230445862,0.43862376894269695,0.08070418421103061,0.9282647346963684
393,404.912943,0.70638936758041,1.74523890018463,-0.62635767459869,0.438414203877352,0.07883743972194387,0.9219211461592693
394,404.921276,0.54640281200409,1.66918992996216,-0.65256100893021,0.4418170695402183,0.08155137300491326,0.9223096224726458
395,404.92960899999997,0.63326078653336,1.62136840820312,-0.61621451377869,0.4400173012091193,0.08129791337616632,0.9236605313359479
396,404.93794199999996,0.78266853094101,1.74377882480621,-0.62261807918549,0.43942801806391524,0.08248155214348571,0.9221375718408702
397,404.94627499999996,0.68244004249573,1.77413153648376,-0.61670106649399,0.4384481177038071,0.07960638221429285,0.9223614906778143
398,404.954608,0.81207376718521,1.70645880699158,-0.67164367437363,0.43732020319724585,0.07920844214303163,0.9240793695255203
399,404.962941,0.81957870721817,1.69680237770081,-0.6186990737915,0.438918045588902,0.08212138803637754,0.9230461899115112
400,404.971274,0.89086306095123,1.71434783935547,-0.61014384031296,0.4394238335745673,0.07995604860539388,0.9255632089108836
401,404.979607,0.94508838653564,1.70443522930145,-0.57725518941879,0.43978681369703665,0.0803759998204755,0.9231483693025552
402,404.98794,0.88855791091919,1.62126588821411,-0.49452129006386,0.439569804133201,0.08096267374194388,0.924625202101104
403,404.996273,0.90156984329224,1.56337761878967,-0.39211550354958,0.43985624702609283,0.07885664093251121,0.9252782743804306
404,405.00460599999997,0.91773253679276,1.4973441362381,-0.50894200801849,0.4392785928687275,0.07844931617075102,0.922915108349858
405,405.01293899999996,0.93420231342316,1.63499510288239,-0.42884632945061,0.44154853236918573,0.07809469286276326,0.9254810761432254
406,405.02127199999995,0.85953694581985,1.3521625995636,-0.39726397395134,0.4390911180145887,0.07918781163741122,0.9213576998029438
407,405.029605,0.84816420078278,1.37219297885895,-0.41048094630241,0.444128853934152,0.0789600854017296,0.925588899729203
408,405.037938,0.87777417898178,1.32247579097748,-0.28146201372147,0.43967582741562244,0.08013665067906325,0.9219147234546898
409,405.046271,0.97277730703354,1.27206683158875,-0.31668156385422,0.4404793466840469,0.08097237470198673,0.9281156500991509
410,405.054604,0.82646888494492,1.21712446212769,-0.27810654044151,0.43848825960743165,0.08424151308682551,0.923819639244858
411,405.062937,0.61901926994324,1.22165834903717,-0.45054164528847,0.44072462587940403,0.08212558468993877,0.926074203179807
412,405.07126999999997,0.71043640375137,1.3852561712265,-0.44908156991005,0.435979609586755,0.0816044454671898,0.9270850006414917
413,405.07960299999996,0.68059587478638,1.41297078132629,-0.52208209037781,0.43818026172871527,0.08165116212805917,0.9243531129798112
414,405.08793599999996,0.54957902431488,1.38241302967072,-0.65350884199142,0.4382868202365173,0.08171392946827141,0.9260304120122173
415,405.096269,0.75262302160263,1.2841055393219,-0.60256206989288,0.4378919212185602,0.08249417859680816,0.9259034176262061
416,405.104602,0.73423200845718,1.29811656475067,-0.67174607515335,0.4366226585543887,0.08145774505576327,0.9246239370229296
417,405.112935,0.80916637182236,1.39994597434998,-0.74178820848465,0.4383878805199449,0.08086300017882346,0.9207365464191051
418,405.121268,0.75974375009537,1.45438897609711,-0.69426095485687,0.4362087833638092,0.08102579992644592,0.9246458326067244
419,405.129601,0.70462203025818,1.49347651004791,-0.80752724409103,0.4358340282829438,0.08160901312925407,0.9247176501215724
420,405.137934,0.71238309144974,1.85865843296051,-0.70368701219559,0.4357650328655633,0.07794645976047142,0.9264648203947102
421,405.14626699999997,0.80218660831451,1.96155095100403,-0.87727469205856,0.4377622020487877,0.08034597854225,0.9252868379865377
422,405.15459999999996,0.85136592388153,2.07699418067932,-0.70463478565216,0.43591221984551837,0.07933812482016428,0.925118096020757
423,405.162933,0.76238214969635,1.99595093727112,-0.76549428701401,0.4384718622480122,0.07901389379890612,0.9230783034344112
424,405.171266,0.81407159566879,2.08324408531189,-0.76244604587555,0.43871962294286626,0.07887146302631938,0.9257950101579938
425,405.179599,0.84906059503555,2.14558911323547,-0.80947387218475,0.43814192012864694,0.07973296909916122,0.9254078962364978
426,405.187932,0.88251292705536,2.01746678352356,-0.80468398332596,0.43763350467292655,0.0823831619048602,0.9221886615363918
427,405.196265,0.86158603429794,2.08969902992249,-0.78439754247665,0.43819651311757646,0.08002490413432244,0.9277069325349765
428,405.204598,0.83259069919586,2.05030417442322,-0.72789251804352,0.43716547440509385,0.0819740246753306,0.9256717136928009
429,405.21293099999997,0.88038682937622,2.15755081176758,-0.71119201183319,0.4404788114586653,0.07956901983338979,0.9256135200967591
430,405.22126399999996,0.7842823266983,1.98199093341827,-0.71598190069199,0.4385851354015112,0.07890434897675816,0.9241615022931774
431,405.22959699999996,0.73894506692886,2.04922842979431,-0.64067596197128,0.4383375693340693,0.07826873234340102,0.9275395529610764
432,405.23793,0.58866637945175,1.98657608032227,-0.57922756671906,0.4371511692903479,0.07953477149107041,0.9231147960740694
433,405.246263,0.71046197414398,2.06200957298279,-0.67192542552948,0.4401906169190694,0.08022225632959488,0.9247263110413846
434,405.254596,0.72946780920029,1.88206994533539,-0.66339582204819,0.4405640096080551,0.0814437562105602,0.923686903350207
435,405.262929,0.55880016088486,1.71819007396698,-0.55794203281403,0.43873329551852447,0.07946031434195408,0.9254645328132469
436,405.271262,0.67383366823196,1.63207495212555,-0.53806537389755,0.43949467795235814,0.07688731563334592,0.9265137691887061
437,405.279595,0.67239934206009,1.49158108234406,-0.38622426986694,0.4386736422168969,0.07965628589902653,0.9242965737167673
438,405.28792799999997,0.72196280956268,1.49017190933228,-0.4310747385025,0.4397019561456173,0.07990354177903164,0.9246469030574878
439,405.29626099999996,0.7658399939537,1.50994634628296,-0.46370729804039,0.44020341367137655,0.0795216402229,0.9274967349305447
440,405.304594,0.84199118614197,1.69442021846771,-0.52277374267578,0.4375607140210214,0.07972888192351939,0.9238704369992622
441,405.312927,0.5822114944458,1.53612411022186,-0.54116475582123,0.4400823554214163,0.08170894822295816,0.9252814857327204
442,405.32126,0.83615106344223,1.44926631450653,-0.39606010913849,0.4376216810576765,0.0796692407861051,0.9286882439438173
443,405.329593,0.70434021949768,1.50075078010559,-0.4817653298378,0.4382386012953153,0.08243172752613877,0.9252887842606519
444,405.337926,0.57749855518341,1.35746479034424,-0.59031850099564,0.43705336901606323,0.08180371960815101,0.9235934821926816
445,405.346259,0.8175807595253,1.56891024112701,-0.60978525876999,0.43711000559281327,0.08173802677465918,0.9248572952893315
446,405.35459199999997,0.76189541816711,1.56312143802643,-0.62981557846069,0.4386586072493571,0.08357861820532346,0.9264194722078286
447,405.36292499999996,0.63087856769562,1.51150870323181,-0.5143209695816,0.43727052455045706,0.07907008029976631,0.9271758916426672
448,405.37125799999995,0.76993834972382,1.55016088485718,-0.63849884271622,0.43813612996315504,0.08015679461615408,0.9231569329086611
449,405.379591,0.70385348796844,1.43546009063721,-0.6068908572197,0.43666007567425197,0.08043854212274387,0.9285546322258152
450,405.387924,0.72634279727936,1.50318419933319,-0.56900745630264,0.438021883672598,0.08055256945746325,0.9243339421797775
451,405.396257,0.7887647151947,1.50392699241638,-0.67889249324799,0.43850996056381525,0.08175896746771633,0.9240081358929071
452,405.40459,0.71297210454941,1.50628328323364,-0.57858717441559,0.4369392200392122,0.08085666262373672,0.9244550977434428
453,405.412923,0.65049904584885,1.44941985607147,-0.68286269903183,0.4386025545548418,0.08117570560805612,0.9265986267401245
454,405.42125599999997,0.68203020095825,1.36089706420898,-0.62671631574631,0.4373328539789938,0.08112419016507244,0.9231188832497111
455,405.42958899999996,0.68615412712097,1.60361778736115,-0.65916955471039,0.4360634940011163,0.08070433018158876,0.9277317475299449
456,405.43792199999996,0.67542171478271,1.60366880893707,-0.65742772817612,0.43653449233697345,0.08101993069356836,0.9241140132047694
457,405.446255,0.6628195643425,1.54373145103455,-0.62218254804611,0.43728735982155303,0.07873384928216734,0.9259611246537194
458,405.454588,0.66976100206375,1.58701956272125,-0.76149839162827,0.4392625847641306,0.08066878635056123,0.9241898205815531
459,405.462921,0.70118969678879,1.47108960151672,-0.81316232681274,0.43746641704014383,0.0821189065368806,0.9262346734805978
460,405.471254,0.69721949100494,1.54580616950989,-0.76882410049438,0.4363386485041408,0.0808184791584408,0.9255800441819796
461,405.479587,0.79022473096848,1.46143293380737,-0.6645485162735,0.4352530654595826,0.08057464142234999,0.9251711319903937
462,405.48792,0.78533244132996,1.53433108329773,-0.80022710561752,0.4359482259166479,0.08287800818073468,0.9245671058187682
463,405.49625299999997,0.83279556035995,1.73588943481445,-0.72074609994888,0.43414943072260614,0.08088870316135612,0.9224713578516123
464,405.50458599999996,0.98950350284576,1.76637065410614,-0.83298766613007,0.435118140006552,0.08317466293062448,0.9250332384693377
465,405.51291899999995,0.95436078310013,1.91764795780182,-0.82725012302399,0.43502997378913666,0.08097218007457448,0.9242140516942857
466,405.521252,1.03755593299866,1.92412853240967,-0.88849383592606,0.4346240296655775,0.08143904257793774,0.9240365514949878
467,405.529585,1.0913712978363,1.91452312469482,-0.85814076662064,0.43726084183673464,0.08170975714313775,0.9221868125759827
468,405.537918,1.18709182739258,1.95419955253601,-0.92919474840164,0.4380613930371346,0.08082814970794999,0.9235560164159652
469,405.546251,1.13491547107697,2.11285448074341,-0.96000874042511,0.43766712655826523,0.07992671460521428,0.9248385137441203
470,405.554584,1.15781474113464,2.08160495758057,-0.8836527466774,0.4374055959740459,0.07787775628420816,0.9259688124364733
471,405.56291699999997,1.06665372848511,2.11346912384033,-1.0074462890625,0.4372179264924959,0.07907681319178367,0.9250185440997684
472,405.57124999999996,1.18314719200134,2.06167697906494,-0.95703756809235,0.43649950805975507,0.07839648699273877,0.9236801887045101
473,405.57958299999996,1.27453863620758,1.92430782318115,-0.9417969584465,0.437646642023203,0.07977100051179183,0.926881517682757
474,405.587916,1.20878708362579,1.91329348087311,-0.93237090110779,0.43820517403738873,0.08015105310751429,0.9267599728642674
475,405.596249,1.26608598232269,2.07704544067383,-0.91623389720917,0.438359270290453,0.07844875053483572,0.9237278724203305
476,405.604582,1.09823596477509,1.98565399646759,-0.85173732042313,0.4377811295645581,0.07958280188696734,0.9257955940402285
477,405.612915,1.20164060592651,1.92510211467743,-0.83624082803726,0.43772755836953875,0.08040812550758877,0.926996347855549
478,405.621248,1.06227374076843,1.97891759872437,-0.92568570375443,0.43615482291396734,0.08013419350799285,0.9294840754294877
479,405.629581,1.09044933319092,1.96997809410095,-0.88065588474274,0.43915174445327443,0.07849575913682244,0.9264146065225408
480,405.63791399999997,1.17308068275452,1.99134016036987,-0.83273148536682,0.43890125897465915,0.07907426478911428,0.9213565320384745
481,405.64624699999996,1.15130865573883,1.84979629516602,-0.90140342712402,0.43749964967065913,0.07920525511916836,0.9225988388061519
482,405.65458,1.10443460941315,1.75812256336212,-0.82940173149109,0.43809652328491216,0.07682502269744898,0.922120444628657
483,405.662913,1.15256369113922,1.8273321390152,-0.80399233102798,0.4365830032192928,0.07883683759338979,0.926125682130152
484,405.671246,1.15883910655975,1.7983626127243,-0.89571696519852,0.43714192448830097,0.07936079283149897,0.9270118207347632
485,405.679579,1.15719997882843,1.72400438785553,-0.94745773077011,0.4376226541947347,0.07855415344238265,0.9256490395993602
486,405.687912,1.18504250049591,1.65277135372162,-0.85949844121933,0.4377063439816846,0.07805386368109285,0.9249597666214917
487,405.696245,1.14032018184662,1.58538043498993,-0.87535375356674,0.4385196432775378,0.07663597257769796,0.9240908525427989
488,405.70457799999997,1.13317382335663,1.58589255809784,-0.96354353427887,0.4376080571388714,0.0762299250583255,0.9249990813586172
489,405.71291099999996,1.6097776889801,1.59034931659698,-0.90967673063278,0.4377744149188602,0.07795324739144795,0.9270297264566224
490,405.72124399999996,1.0128892660141,1.45131516456604,-0.88170599937439,0.43959145643273156,0.07690823199797653,0.9248513591532805
491,405.729577,1.22236251831055,1.318274974823,-0.78549897670746,0.43917690004621224,0.07561193436992449,0.9249239551777744
492,405.73791,1.24697780609131,1.22685790061951,-0.87947762012482,0.43818361905156317,0.07939248060693571,0.92607848498286
493,405.746243,1.15704619884491,1.02783524990082,-0.82351046800613,0.43870458797532647,0.07815326963152244,0.9243780252884847
494,405.754576,1.26055335998535,1.0000182390213,-0.78242528438568,0.4380254842797102,0.07726542195495306,0.9259342660709307
495,405.762909,1.28890824317932,0.97829729318619,-0.86444199085236,0.43582376168698667,0.07657487781680407,0.9212127023813673
496,405.771242,1.3475649356842,1.0896167755127,-0.81139492988586,0.4372614743758224,0.0758918389982102,0.9259775706699918
497,405.77957499999997,1.44602608680725,1.10762357711792,-0.81961709260941,0.4382093098698826,0.0767372214064306,0.9236103174637774
498,405.78790799999996,1.33818995952606,0.96810281276703,-0.85286432504654,0.43721924022752445,0.07722304183609591,0.9257668864970305
499,405.796241,1.42348539829254,1.07340288162231,-0.86147075891495,0.43690384650716935,0.07669897103796225,0.922272643264459
500,405.804574,1.43711221218109,0.83506238460541,-0.94666367769241,0.43717958489242853,0.07820631168326529,0.9259648225745377
501,405.812907,1.56526041030884,0.8260463476181,-0.90076303482056,0.4386135510035929,0.07613284247262142,0.9257651348503264
502,405.82124,1.13476181030273,0.65824735164642,-0.97391724586487,0.43952912700419483,0.07734341280800917,0.928271254714654
503,405.829573,1.87140166759491,0.38758179545403,-0.8996102809906,0.43741488943294593,0.07192101405591428,0.9281927225541091
504,405.837906,1.6914871931076,0.03830608725548,-0.86697781085968,0.43710674558367035,0.07956490832932142,0.9265328426750337
505,405.84623899999997,1.71236276626587,0.00585285248235,-0.87891405820847,0.4390875174074755,0.07683660302843368,0.9280825634391938
506,405.85457199999996,1.76909828186035,-0.23383232951164,-0.95962452888489,0.43519049274678157,0.07166035321294081,0.9263430809488101
507,405.86290499999996,1.44400238990784,-0.33475244045258,-0.88670074939728,0.4288190238329826,0.08054739358473775,0.9224597775206275
508,405.871238,1.56899988651276,-0.0303272549063,-1.08621001243591,0.42924146262966834,0.07433997125041734,0.9264880783703867
509,405.879571,1.26508724689484,0.45187357068062,-1.17140316963196,0.42570858585591226,0.07819872729632346,0.9212638893905949
510,405.887904,1.24430119991302,1.40524816513062,-1.37543320655823,0.42402009574734384,0.07892493690763164,0.9275627136230468
511,405.896237,0.82375377416611,1.86964690685272,-1.57080590724945,0.4302975596213826,0.07900263581957143,0.927012404616998
512,405.90457,-0.59395569562912,1.77323520183563,-1.7645263671875,0.4352460102159153,0.07329032737381631,0.9353618232571347
513,405.912903,-0.97035700082779,2.08913540840149,-2.05926942825317,0.4278692907216602,0.08745494545722449,0.931449033776108
514,405.92123599999996,-1.6628121137619,2.75943446159363,-2.70021462440491,0.42341947555542037,0.07433961848823367,0.9364268244529255
515,405.92956899999996,-2.86873030662537,3.40780758857727,-3.54100179672241,0.42749473026820606,0.0845640897750857,0.9359300379850428
516,405.937902,-4.68872451782227,3.47033214569092,-5.07521772384644,0.42229861629252546,0.08659053821952958,0.9385213073419061
517,405.946235,-6.09469079971313,4.21647500991821,-7.84411716461182,0.4150728303558969,0.09396611427774285,0.9445986455800581
518,405.954568,-8.59154033660889,3.60265493392944,-13.24172878265381,0.40222275013826325,0.10809166090829081,0.9602499981315764
519,405.962901,-6.39886093139648,2.63538551330566,-19.52564811706543,0.40221211861590916,0.17476563550988058,0.9618147052064233
520,405.971234,1.72076547145844,6.04515552520752,-23.99879837036133,0.36703820131262954,0.12518038555067448,0.9836730178521601
521,405.979567,-6.17532920837402,12.60950374603271,-28.22795104980469,0.2939796691038173,0.1322272237466306,1.013336668209154
522,405.98789999999997,-0.09775687009096,26.27387619018555,-30.36214447021484,0.33509453948663165,0.10550250812452652,0.9809239056645612
523,405.99623299999996,-9.01024913787842,36.2033805847168,-33.47515106201172,0.405095110134203,0.14066196217828875,0.9900495957355111
524,406.00456599999995,-1.04325747489929,39.35797119140625,-35.98746490478516,0.4654816218784877,0.21829974894620915,0.9486465064846733
525,406.012899,10.87914276123047,42.99960708618164,-39.21493911743164,0.41183106753290916,0.2025742068582653,1.0044666212432234
526,406.021232,33.34081268310547,45.13359451293945,-43.50042343139648,0.4206324596794286,0.20024286240947448,0.959058586432009
527,406.029565,48.14655685424805,52.41598129272461,-51.9792594909668,0.39716611103135707,0.10308485858294388,0.9741331606495133
528,406.037898,53.16358184814453,62.83626556396484,-62.46346664428711,0.40576134409223263,0.248158245670552,1.002355303083147
529,406.046231,70.8703842163086,70.38410186767578,-66.29528045654297,0.34308764399314384,0.35891053627948366,1.115523163153201
530,406.05456399999997,82.96375274658203,80.91294860839844,-59.8006706237793,0.21536722475168674,0.45141959676937143,1.2008004285851304
531,406.06289699999996,92.96453857421876,87.91729736328125,-48.66889190673828,0.25214270669586836,0.43440273829868875,1.335301301917251
532,406.07122999999996,97.71414184570312,86.7943344116211,-35.91808319091797,0.17692001498475407,0.5745245485889673,1.3032142483458224
533,406.079563,100.6509017944336,82.82955932617188,-22.43468856811523,0.03661969790653265,0.6533665073161223,1.300511262854751
534,406.087896,92.97669219970705,80.322265625,-0.31886300444603,-0.1016322264865949,0.8735448486950929,1.2493233778038804
535,406.096229,79.21997833251953,87.9800796508789,32.99746704101562,-0.20491069676924692,1.1317002043432123,1.277167456490653
536,406.104562,65.58351135253906,82.69258117675781,69.37459564208984,-0.21136106276998673,1.2831515681986907,1.2836356065711194
537,406.112895,48.6803092956543,75.42877960205078,109.95932006835938,-0.24960454629392037,1.3108131836871713,1.2634440830775673
538,406.121228,45.74898910522461,67.33312225341797,147.78469848632812,-0.23613333702087447,1.1599124207788583,1.2546705713077468
539,406.12956099999997,35.97433090209961,57.73128509521484,174.40988159179688,-0.18613415105002243,0.8203539556386521,1.3382096193274673
540,406.13789399999996,18.24673080444336,35.79087829589844,190.6406707763672,-0.08237883752706121,0.5461222784859796,1.466721320638851
541,406.14622699999995,11.4531307220459,15.40701484680176,195.98249816894528,-0.10360009816228162,0.3009673040740347,1.4467200454400508
542,406.15456,-0.55273449420929,-8.16147041320801,190.74513244628903,-0.09477362949021019,0.08012103182928877,1.3965338103625236
543,406.162893,-4.25701427459717,-28.96685981750488,176.6296844482422,-0.10778243444403775,-0.044645405545526526,1.3372697635572786
544,406.171226,-4.14485120773315,-46.99914169311523,155.37913513183594,-0.10445531533688876,-0.17374912086798264,1.3525228111111387
545,406.179559,-3.94028377532959,-62.53087615966797,129.3123321533203,-0.09495693201921428,-0.27641459387175915,1.3856045080690969
546,406.187892,-5.54837656021118,-75.71197509765625,100.19396209716795,-0.07135383936823674,-0.32282420567103776,1.4239229474748887
547,406.19622499999997,-9.27262115478516,-85.53814697265625,71.70274353027344,-0.03884674335012653,-0.3411111539723918,1.4355113554973988
548,406.20455799999996,-15.42100811004639,-93.90314483642578,45.52664566040039,-0.018257932091245918,-0.3122210259340245,1.3914091733037202
549,406.21289099999996,-22.22146606445312,-97.75274658203124,22.94729042053223,0.02616835491997857,-0.21309799077559488,1.3275524061553334
550,406.221224,-25.3555793762207,-101.19639587402344,4.21652746200562,0.09356145956078367,-0.06716343821311531,1.2601611079001918
551,406.229557,-26.23863220214844,-103.76988220214844,-9.59061813354492,0.13544063178860408,0.048822137166042855,1.2289273009008284
552,406.23789,-25.28761291503906,-107.53427886962892,-18.93452072143555,0.1785809409861663,0.13357254923606426,1.1691761016845703
553,406.246223,-26.14674186706543,-109.6137924194336,-25.06716537475586,0.2111464130635163,0.20068000773994285,1.12024297519606
554,406.254556,-27.43190574645996,-110.05872344970705,-27.8615665435791,0.23439694424064794,0.2460750025145857,1.061081107781858
555,406.262889,-29.77188682556152,-106.72869873046876,-27.67538642883301,0.2570077107877143,0.2767854564043939,1.024153086603904
556,406.27122199999997,-34.49253463745117,-101.82132720947266,-25.31006622314453,0.29040728296552343,0.28336987203481223,1.0306033309625122
557,406.27955499999996,-40.80187225341797,-96.56304168701172,-20.52470016479492,0.33935843681802547,0.28022785576022446,1.0488963613704756
558,406.287888,-48.52315521240234,-91.17103576660156,-13.86863994598389,0.3825009842308204,0.2683225213264928,1.0770670248537642
559,406.296221,-55.92275238037109,-87.3572769165039,-6.83295726776123,0.41939243978383567,0.25763390015582655,1.0857819537727202
560,406.304554,-61.58296585083008,-81.9542007446289,-0.00011526510934,0.46152309495575605,0.23851511429767244,1.121589407628896
561,406.312887,-65.79918670654297,-79.04833221435547,6.52733612060547,0.5524026617711907,0.19990239824567552,1.2080996377127509
562,406.32122,-69.5055923461914,-81.9349365234375,12.28066539764404,0.6250021409015265,0.16613286368700916,1.258954223321408
563,406.329553,-71.87360382080078,-86.42689514160156,16.68028259277344,0.6690149404564683,0.1319292005227541,1.2683890790355448
564,406.33788599999997,-71.67444610595703,-92.34547424316406,19.92315292358398,0.702434315973399,0.09360622386543163,1.2389714377267018
565,406.34621899999996,-69.4619369506836,-98.24447631835938,21.26444816589355,0.7087961994871805,0.051395771454791836,1.1760688314632488
566,406.35455199999996,-66.72569274902344,-103.63532257080078,19.38068771362305,0.6707723286687112,0.030808777225261222,1.0998367776676101
567,406.362885,-33.47174453735352,-91.51752471923828,9.8590259552002,0.5433343381297837,0.2677889016209816,0.697625997115155
568,406.371218,-29.47563743591309,-88.1358642578125,2.82586050033569,0.7367221676573459,-0.40591101257168466,1.0616270376711479
569,406.379551,-45.61806106567383,-89.47835540771484,5.031090259552,0.6814760091353438,-0.08147334565921735,0.7794100897652765
570,406.387884,-34.41809463500977,-87.1862564086914,1.2677606344223,0.7027475201353734,-0.10070888363585204,0.7416983040011663
571,406.396217,-29.37120628356934,-82.05905151367188,-4.44759559631348,0.6809758653446122,-0.1421977670825255,0.6940600336814408
572,406.40455,-28.76312637329102,-77.34769439697266,-6.15991401672363,0.7209288344091296,-0.14366556187065305,0.6596749656054438
573,406.41288299999997,-27.92449188232422,-71.44032287597656,-5.83086729049683,0.75363709002125,-0.11756703561666018,0.600978257704754
574,406.42121599999996,-24.91328620910645,-63.06600570678711,-4.42366027832031,0.7674670705989918,-0.08853870386979999,0.5366206169128418
575,406.429549,-22.31283569335938,-52.48155212402344,-2.07991981506348,0.7958260361029174,-0.05875851426805816,0.4895907032246489
576,406.437882,-22.43410682678223,-43.28906631469727,1.85903382301331,0.8525860066316562,-0.006330462210640816,0.45001370566231835
577,406.446215,-8.41232490539551,-31.58348846435547,5.67678642272949,0.8954164933185184,0.051437956946236735,0.37806262775343263
578,406.454548,1.10489630699158,-21.90558815002441,8.84941577911377,0.9112202391332509,0.0902609618342653,0.31532380045676733
579,406.462881,14.23906135559082,-9.5685338973999,12.34335136413574,0.9640606082215603,0.060770140618693874,0.29025849030942347
580,406.471214,26.62735366821289,3.0623254776001,16.20586013793945,0.9691679234407388,0.12178813924594796,0.23201937578162343
581,406.47954699999997,37.81435775756836,14.43814277648926,18.6093635559082,1.0404928363099388,0.05028780017580305,0.23902946588944388
582,406.48787999999996,44.48485565185547,25.58965492248535,21.74475479125977,1.0731866408367552,0.05806207656860306,0.23616944040570917
583,406.49621299999995,51.04826736450195,36.45410537719727,24.21225738525391,1.1106452163384886,0.035686824394731635,0.24192048578846223
584,406.504546,51.17197036743164,43.92048263549805,28.09438705444336,1.149032456534249,0.019891374573415305,0.1900848198910153
585,406.512879,44.68349075317383,50.95190048217773,34.63015747070312,1.1591825679856906,0.008626407658567347,0.0753078959426102
586,406.521212,53.0599479675293,62.70689010620117,40.68367385864258,1.2030090604509622,0.040315970474360203,-0.11273223526623774
587,406.529545,62.05013275146484,79.94805145263672,46.18808746337891,1.307149128038056,-0.029523296623814286,-0.34289836883544894
588,406.537878,68.30963897705078,103.9262924194336,50.29319763183594,1.3918777387969345,-0.08764724950401122,-0.6230512443853887
589,406.54621099999997,51.23011016845703,109.76457977294922,55.03296279907227,-0.10084199053900611,-0.10673699330310407,-0.2957937912065153
590,406.55454399999996,66.59625244140625,139.6507110595703,27.28589820861816,0.14498588990192038,-0.04880310625446122,0.9207909447806223
591,406.56287699999996,96.25204467773438,141.3433380126953,-3.53904366493225,-0.5398749818607255,-0.5706967139730652,1.5148035360842336
592,406.57121,105.25530242919922,226.34767150878903,-34.72282028198242,-0.01709970892692143,-1.4643487151788204,1.9750009264264783
593,406.579543,58.24592590332031,216.1406707763672,-65.3515853881836,1.985368339382872,-1.326217845994599,2.6053393616968274
594,406.587876,40.6660270690918,118.11002349853516,-47.86834335327148,2.397958405163823,-0.2822164370089163,2.287566710491569
595,406.596209,15.50872993469238,56.36071395874023,-22.99847412109375,1.3833366121564592,0.6669610373827877,1.6097947529384071
596,406.604542,40.8953971862793,35.74813461303711,-12.58457851409912,0.3349795390148551,0.9233145811119856,0.5887891321766132
597,406.612875,88.40684509277344,67.57787322998047,-23.30621147155762,-0.31430670193263466,0.606073165426449,0.1381897683046306
598,406.62120799999997,111.134033203125,107.19136810302734,-32.47560501098633,0.18944233047718875,-0.27313899020759386,0.6622511026810621
599,406.62954099999996,67.37224578857422,175.49867248535156,-18.98567390441895,2.0318617139543806,-1.9157405775420517,4.009625181859853
600,406.63787399999995,-80.48678588867188,-99.93220520019533,-8.6214542388916,2.1271923610142296,-0.12177460047663469,1.8827025744379786
601,406.646207,-14.09447383880615,-47.36405944824219,-39.85602951049805,-1.1560489693466498,1.242445828963299,-1.0288682275888867
602,406.65454,89.77007293701172,136.03793334960938,-5.14495754241943,1.0961632825890366,-0.00472709840657755,1.7212587473343826
603,406.662873,-26.02581787109375,-24.78320693969727,-7.26818799972534,0.5555039036030673,-0.2268202694094908,1.2185041271910377
604,406.671206,19.77971839904785,31.1494197845459,-6.37765789031982,0.43338259872125096,0.1623791212938265,0.795085138204146
605,406.679539,2.15828108787537,6.14955520629883,-3.71766304969788,0.5532833508082795,-0.0018543997133265305,1.1271433927574936
606,406.68787199999997,6.75667715072632,8.35591411590576,-4.41372966766357,0.38919877032844385,0.08281503404889795,0.8981657028198243
607,406.69620499999996,3.79605579376221,6.80425548553467,-4.02634000778198,0.471696999608254,0.06503899486697448,0.9719111968059928
608,406.70453799999996,4.6179141998291,5.09396696090698,-3.16877579689026,0.45228671054450814,0.047822877460596935,0.9399215542540253
609,406.712871,4.36023426055908,3.81266617774963,-2.05278897285461,0.444239596931302,0.020112814951916323,0.9536943630296356
610,406.721204,3.01897072792053,3.04485368728638,-1.26212882995605,0.43272602314851727,0.04269086888858265,0.9384219500483294
611,406.729537,2.88685250282288,3.39085102081299,-0.49462375044823,0.4402516812694316,0.059049433591414284,0.9379050196433549
612,406.73787,2.77315020561218,2.60313606262207,-0.30423301458359,0.44554340596101727,0.0546328693020102,0.9370125556478692
613,406.746203,1.84407126903534,1.54813730716705,-0.50020760297775,0.4442516151739623,0.04734045996957857,0.9399246682926101
614,406.754536,1.28027641773224,0.49915742874146,-0.63934409618378,0.43449070988869176,0.056015520679707144,0.9408769802171356
615,406.76286899999997,1.31541907787323,0.35436016321182,-0.74525898694992,0.4268889524498765,0.06457192557198672,0.9427162092559193
616,406.77120199999996,1.16780412197113,0.47518241405487,-0.94932758808136,0.4317193615193265,0.06445734476556633,0.9356815960942478
617,406.779535,0.52263289690018,0.45725250244141,-1.02729737758636,0.4302712362639755,0.07676314334480101,0.932090623038156
618,406.787868,0.39269179105759,0.07880219072104,-0.91195642948151,0.4277399608067102,0.06673820164738876,0.9265464665938398
619,406.796201,-0.63183915615082,0.3501081764698,-1.13682377338409,0.42238780430385,0.05880658723870102,0.9300404178852939
620,406.804534,-0.94545978307724,0.78685647249222,-0.97071546316147,0.4212061239748581,0.07184447074423062,0.9226707536347061
621,406.812867,-2.79434657096863,1.33195304870605,-0.87348389625549,0.42113654467524286,0.06749426832004489,0.9288395667562682
622,406.8212,-2.40352416038513,2.24484443664551,-0.61206489801407,0.42499605490236836,0.059154477654671425,0.927474936660455
623,406.82953299999997,-3.23767781257629,2.52442359924316,-0.14872905611992,0.42848854648823675,0.056069122285259176,0.9277332072355305
624,406.83786599999996,-3.82265591621399,2.60618448257446,0.07802097499371,0.42845638430848365,0.04947240863527551,0.9323075352882857
625,406.84619899999996,-4.09977579116821,2.77372694015503,0.21956524252892,0.4255999351034357,0.0552907160350255,0.9341717739494478
626,406.854532,-4.30798149108887,2.85316967964172,0.3259539604187,0.42758756754349697,0.056670885913226526,0.9336794639120296
627,406.862865,-4.7341251373291,2.71341824531555,0.40446156263351,0.4280613393199683,0.06123252060948571,0.9335906164986744
628,406.871198,-5.15531349182129,2.90871429443359,0.63254356384277,0.43414495429214184,0.06897973770997959,0.9343018823740428
629,406.879531,-5.01535654067993,3.09121537208557,0.76030737161636,0.43332849230085096,0.06401193993432142,0.9362018351652184
630,406.887864,-5.03510570526123,2.84011912345886,1.11342513561249,0.434646411817901,0.06499764870624183,0.9321215687965856
631,406.896197,-5.27372789382935,2.7163257598877,1.13921868801117,0.4320336361320653,0.06951662350674082,0.9327672452342755
632,406.90452999999997,-5.44992828369141,2.78136038780212,1.21857166290283,0.42978301340219893,0.06893762520381429,0.9312121722162989
633,406.91286299999996,-5.74385118484497,2.774085521698,1.29185390472412,0.42980306002558466,0.07171377235529387,0.9357903928172836
634,406.921196,-5.4837908744812,2.79657530784607,1.1789722442627,0.43578250067574587,0.07313435783191632,0.9346372254040773
635,406.929529,-5.1251392364502,2.26881909370422,1.06014752388,0.4325500799685112,0.07465370455566735,0.9335299900599888
636,406.937862,-5.2585129737854,2.20317029953003,0.9822803735733,0.43435082143666837,0.07085468696088162,0.9350848684505539
637,406.946195,-5.54134511947632,1.67956376075745,0.83535701036453,0.43408145709913565,0.07473656109401122,0.9344514535397896
638,406.954528,-5.23784255981445,1.80187177658081,0.45577970147133,0.4290561286770571,0.07602934934655,0.9301701370550662
639,406.962861,-4.84958124160767,1.27337324619293,0.45572847127914,0.4299495658096,0.07386057960743775,0.9328620287836815
640,406.97119399999997,-4.69118309020996,1.44775485992432,0.42527318000793,0.4312429622728,0.07661995230888878,0.9284340605443835
641,406.97952699999996,-4.05482339859009,1.42629027366638,0.43065217137337,0.4313862080476724,0.07437373302420816,0.9276065047906367
642,406.98785999999996,-3.94785737991333,1.23682165145874,0.42632332444191,0.43245203640996216,0.0712822347271204,0.9277950014386855
643,406.996193,-4.2685227394104,1.14783787727356,0.42514508962631,0.42847375480496125,0.0754412339658153,0.9277306770791816
644,407.004526,-3.81799340248108,1.16697156429291,0.38331699371338,0.43088518843358875,0.07555641690079082,0.9263349065975265
645,407.012859,-3.12984204292297,0.92911803722382,0.58397901058197,0.4281658055830979,0.07675859392905714,0.9271149732628643
646,407.021192,-2.2338559627533,1.30774760246277,0.83553642034531,0.4259456420431337,0.07344111496088469,0.9291844465294662
647,407.029525,-2.36269569396973,1.34022653102875,1.10648381710052,0.4366604162722214,0.08518937290931224,0.9259030283713827
648,407.03785799999997,-1.13615775108337,1.24130427837372,1.09162747859955,0.4213040215628489,0.07759699407888877,0.9288447243826735
649,407.04619099999996,-0.20753933489323,1.55723023414612,1.35755443572998,0.4324986010181663,0.08191932829058877,0.9225715909685407
650,407.05452399999996,1.0366336107254,1.88993346691132,1.65708720684052,0.4267215728759765,0.07554252536929387,0.927841030821508
651,407.062857,1.94811594486237,2.17532730102539,1.74617326259613,0.42530030620341425,0.08036113515192142,0.9285897624735927
652,407.07119,2.70120024681091,2.5803906917572,1.84353315830231,0.42382079727795613,0.0823940975325449,0.930256065057249
653,407.079523,3.70883846282959,2.81716895103455,1.78072714805603,0.4283177609346347,0.08110202088647958,0.9259357257765163
654,407.087856,4.49937105178833,3.745121717453,1.67786061763763,0.4190027957059898,0.08065983957173876,0.9387239144772896
655,407.096189,3.52213644981384,4.24380493164062,1.02946186065674,0.4130715739970306,0.07330762488501427,0.9357774500944173
656,407.104522,2.32315969467163,4.57363891601562,0.07512654364109,0.4083179940982745,0.08558572555074898,0.9425799700678612
657,407.11285499999997,-0.3189868927002,5.23556232452393,-0.91300666332245,0.3988689305830979,0.07799815158454694,0.952719960893903
658,407.12118799999996,-2.65951323509216,6.67439079284668,-1.49058198928833,0.3858108423194102,0.0726000021915051,0.9483230357267418
659,407.12952099999995,-5.24201774597168,8.8686351776123,-2.30470514297485,0.38880905326531834,0.07496814946739082,0.9574814232028265
660,407.137854,-8.2767162322998,10.00990390777588,-3.77337384223938,0.3893442056616959,0.08124537005716427,0.9533381948665692
661,407.146187,-11.96649837493896,11.7095365524292,-5.12993001937866,0.36813217766430917,0.08247658914449285,0.9727263937191091
662,407.15452,-16.96294593811035,13.91126537322998,-7.31590366363525,0.39340055718713873,0.07952185917873775,0.9714501244681223
663,407.162853,-17.7794017791748,15.26316070556641,-8.46875,0.39838751968072345,0.09270228293477245,0.9425691682465224
664,407.171186,-18.32880020141602,18.36829948425293,-8.85872745513916,0.3541955169366326,0.07478804612646327,0.9755584171840123
665,407.17951899999997,-17.90209770202637,22.39437675476074,-9.58427810668945,0.3752444471631734,0.07668653312994489,0.9681101234591735
666,407.18785199999996,-12.27582550048828,27.17330932617188,-9.73653030395508,0.37632543213513464,0.08029886654445101,0.9431163632139867
667,407.19618499999996,-3.1914598941803,32.54985809326172,-11.06423282623291,0.3646917732394469,0.08094351510612346,0.939969335283552
668,407.204518,8.43290996551514,38.52298355102539,-11.13402557373047,0.38870424640421936,0.1110785469716908,0.9044727987172652
669,407.212851,24.01178550720215,43.50942230224609,-8.80989456176758,0.39937128826063467,0.11542528259510919,0.9166928700038366
670,407.221184,32.76313018798828,46.56239318847656,-6.56373023986816,0.4073147141203592,0.11713296783213674,0.90969367903106
671,407.229517,44.67086029052734,50.2794189453125,-4.71796846389771,0.41701394684460713,0.14690099930276632,0.8958346503121509
672,407.23785,55.33102798461914,58.04405975341797,-3.6914803981781,0.3972039417344694,0.11844184933876528,0.8874223670180958
673,407.246183,59.85337829589844,65.36607360839844,-5.3570876121521,0.3356131485530306,0.11573793936748877,0.9682597919386265
674,407.25451599999997,50.20804214477539,76.27930450439453,-12.7079963684082,0.36475385938371935,0.08168012511973469,1.0079219389934928
675,407.26284899999996,53.48223114013672,35.54879760742188,-23.32670974731445,0.055910768557568366,0.2645110597415847,1.6878542608144333
676,407.27118199999995,104.70296478271484,16.24526596069336,-25.00165939331055,-0.8214610936690345,0.5099158870930571,0.46247565016454584
677,407.279515,202.595458984375,207.0458984375,-48.15000152587891,0.6090510134794275,-0.07487166292813367,-0.021746201174599997
678,407.287848,73.8014144897461,212.71263122558597,-64.60315704345703,0.2730762228673816,-0.02659276431920612,1.4509413193683234
679,407.296181,46.68576049804688,181.6370391845703,-58.78212356567383,1.214563311362753,-0.0872831076991806,1.4232683181762693
680,407.304514,-22.64760208129883,188.7012176513672,-68.48110961914062,-0.19653966232221937,0.1455696991511755,1.157678098094706
681,407.312847,4.07321929931641,304.4197692871094,-71.88328552246094,0.440349238259452,0.015669135110718366,1.6551253260398398
682,407.32117999999997,32.09488677978516,434.63372802734375,-74.34745025634766,0.8592611429642651,0.06350762381845612,1.797920927709462
683,407.32951299999996,51.27535247802734,528.6138916015625,-74.36839294433594,1.107737482810507,0.20029018119889896,1.9512766234728753
684,407.33784599999996,76.93827819824219,552.3295288085938,-66.32676696777344,0.9636922758452744,0.5992972120946766,2.6322855268205916
685,407.346179,159.87362670898438,506.4923095703125,-68.8853988647461,0.6895270639536336,0.49160251812059075,2.42274420601981
686,407.354512,249.75485229492188,550.1465454101562,-48.60644912719727,1.189165309983857,0.3732648431038367,0.9375884581585315
687,407.362845,404.4869384765625,695.3238525390625,-14.09042167663574,1.2505886506061161,-0.2521270878460939,1.6598573022959182
688,407.371178,287.21343994140625,678.9393920898438,-25.48505020141602,1.4205319540841235,-0.6293887508158785,3.31723621913365
689,407.379511,-20.34706497192383,486.3179321289063,-31.40550994873047,1.3036647134897663,-0.29250001420780103,2.8595661630435862
690,407.387844,19.45605659484863,589.0031127929688,-75.76752471923828,-0.6582604622354316,0.6702718442800092,0.756816572072555
691,407.39617699999997,142.10191345214844,850.6439819335938,-77.05525970458984,-0.7670228821890693,0.9931457285978357,1.9636272897525713
692,407.40450999999996,134.64208984375,260.86672973632807,-21.25908279418945,4.94398934500558,-0.2502896347824408,8.514980394013074
693,407.412843,43.01510238647461,-94.36180877685548,33.95994186401367,-1.0521790446067345,0.49071234099718974,2.3718489432821466
694,407.421176,55.99170303344727,53.10948944091797,24.79249000549316,0.33043773806824994,-0.1449465751647949,3.08396222640057
695,407.429509,-5.55567407608032,-107.53103637695312,31.87686157226562,0.5834998889845244,0.6251852366389061,1.990546596293547
696,407.437842,77.71582794189453,-154.2916259765625,20.50462532043457,0.0966077252310153,0.1395347410318806,1.5816824776785714
697,407.446175,-5.41617298126221,-189.6421356201172,1.47841084003448,-0.16712000175398264,-0.5572108833157285,1.4360098936119856
698,407.454508,-77.67861938476562,-198.0665740966797,8.12372589111328,-0.24055001687030406,-0.21741930319338468,1.2096094598575509
699,407.46284099999997,-100.9333953857422,-209.0318756103516,18.82618522644043,-0.11530193747306326,0.028363654808122446,1.1916885570603968
700,407.47117399999996,-98.17147064208984,-221.700439453125,13.5660400390625,-0.11065075592118877,0.20562123279182246,1.1252874257613203
701,407.47950699999996,-81.17929077148438,-224.5102996826172,4.93156337738037,-0.018916609031813265,0.20094878819523979,1.236374426861199
702,407.48784,-67.792724609375,-234.51416015625,-0.01115558482707,0.14824175104802959,0.17422398742364387,1.2691376160602184
703,407.496173,-58.71773147583008,-246.89036560058597,-2.68253922462463,0.22793327059064591,0.14393493837239796,1.205517905099051
704,407.504506,-54.71427536010742,-256.64312744140625,-2.94643044471741,0.3308153152465816,0.10100159718065815,1.1443067083553387
705,407.512839,-53.12097549438477,-265.9801025390625,-0.70204204320908,0.41016160225381626,0.09201731608838469,1.0604845747655756
706,407.521172,-50.73733139038086,-275.541259765625,1.7930691242218,0.4945691750974071,0.09004602018667755,0.9893028103575418
707,407.529505,-46.94562911987305,-286.1683044433594,1.83302617073059,0.5209024585023214,0.060223456548184694,0.9120014735630582
708,407.53783799999997,-46.92096710205078,-294.53173828125,0.0867237970233,0.5187001033705112,0.005813930563780612,0.8556751329071663
709,407.54617099999996,-49.73642349243164,-298.16778564453125,-2.53893351554871,0.502906088926354,-0.0597366204067153,0.7889155465729376
710,407.554504,-58.14051055908203,-296.4058837890625,-3.47920489311218,0.5279825171645806,-0.12195722180969897,0.789804263990753
711,407.562837,-69.91915893554688,-290.4957275390625,-8.03419208526611,0.5905491965157643,-0.2043415575611347,0.8513643303695989
712,407.57117,-84.32437896728516,-285.2809753417969,-11.17337894439697,0.698105218459149,-0.21890803259246225,0.941768373761858
713,407.579503,-96.91925048828124,-281.9372253417969,-13.45942687988281,0.7932462497633326,-0.2335376642188245,1.026174389586157
714,407.587836,-107.91546630859376,-280.5985107421875,-16.20487403869629,0.8830745852723418,-0.2278345215077306,1.0996577204490194
715,407.596169,-114.84064483642578,-282.15579223632807,-19.62185859680176,0.9402232267418684,-0.1984385203342051,1.1322334834507528
716,407.60450199999997,-118.94477081298828,-283.00811767578125,-23.88669204711914,0.9789603097098214,-0.18757514807642753,1.171159160380461
717,407.61283499999996,-119.18808746337892,-285.8844299316406,-28.31140327453613,1.0154734825601388,-0.16794103748944386,1.1721342437121336
718,407.62116799999995,-120.00989532470705,-286.4915771484375,-31.89434432983398,1.0136091465852692,-0.13665760050014591,1.1568923872344345
719,407.629501,-120.47754669189452,-284.5505065917969,-32.05830764770508,0.9977353349023939,-0.08732361452920101,1.1370668605882295
720,407.637834,-121.31658172607422,-279.2361755371094,-28.53523635864258,0.9778850905749263,-0.06015350624006632,1.1438686020520263
721,407.646167,-124.04863739013672,-271.1358337402344,-22.31366348266602,0.965876384657256,-0.02353092997657959,1.1951680086096939
722,407.6545,-127.01367950439452,-263.1849365234375,-14.01692390441895,0.9910460880824499,-0.02021335521522857,1.300372688137755
723,407.662833,-129.10169982910156,-258.0536499023437,-3.82770085334778,1.021773279929648,-0.048591284727563265,1.3716219882575835
724,407.67116599999997,-132.4661407470703,-253.0165252685547,6.54419040679932,1.0386568186234457,-0.09117293722775509,1.3772010803222652
725,407.67949899999996,-138.510498046875,-243.39535522460935,17.09876441955566,1.0882436985872235,-0.1566484023113643,1.3847297551680582
726,407.68783199999996,-148.64785766601562,-229.44894409179688,28.84004020690918,1.2130200133031723,-0.24370101033424793,1.4260693958827428
727,407.696165,-162.58938598632812,-217.6973571777344,40.45174407958984,1.2973124640328542,-0.4826783647342602,1.5964909962245397
728,407.704498,-220.22161865234372,-115.19107055664062,60.61894226074219,0.6780221024338081,0.02123580599317755,0.3330357220708112
729,407.712831,-174.67738342285156,89.3873062133789,55.26394653320312,2.3952612584950965,-0.08271298238209286,1.998396114427216
730,407.721164,-166.2148895263672,-181.8691253662109,49.32928085327148,3.42452302271006,-0.5396900371629367,2.14237913793447
731,407.729497,-96.6266860961914,-138.52548217773438,49.56013107299805,3.230909036130321,0.6470778523659224,1.0326833141093348
732,407.73783,-49.95354461669922,-187.09950256347656,37.65438079833984,4.321321759905134,-0.43708231984352547,1.754061056643116
733,407.74616299999997,-44.49155807495117,-240.9362335205078,31.53178977966309,4.084076394840162,0.03138823776828979,1.0195479101064255
734,407.75449599999996,-12.63685131072998,-281.25213623046875,41.78937911987305,3.864610633071588,-0.11360793697590714,0.6413528870563122
735,407.76282899999995,31.03352165222168,-302.8674011230469,45.52675628662109,3.614103356186224,-0.25805726343271634,-0.03703545550910816
736,407.771162,60.72074508666992,-312.8462829589844,42.71360778808594,3.497356103391063,-0.6195635698279551,-0.8991416619748488
737,407.779495,52.31291961669922,-325.5279541015625,67.56920623779297,3.3975570055903224,-1.117394019146355,-1.6036532849681622
738,407.787828,-94.30564880371094,-317.99322509765625,87.55110931396484,2.6875274035395407,-1.5489552945506815,-2.107570803895289
739,407.796161,-254.80700683593753,-193.76547241210935,106.13961029052734,1.9775114254075652,-1.2682509908870774,-2.976390488293706
740,407.804494,-232.06871032714844,13.33705902099609,124.23229217529295,1.8792420990613041,-0.5622974220587285,-3.5674519441565695
741,407.81282699999997,-94.86927032470705,269.31085205078125,158.00022888183594,2.580732423432019,0.2350978948632061,-3.4706987653459813
742,407.82115999999996,119.855712890625,358.67626953125,152.17686462402344,3.2892343949298466,0.9259789330618723,-2.4253705083107455
743,407.82949299999996,257.2965087890625,191.18853759765625,52.00639343261719,-1.4751774924142018,-0.31624105511879386,1.076136900454151
744,407.837826,224.447021484375,349.8382568359375,-19.48712158203125,-1.151540814613809,-0.14190988881247346,2.109969586742167
745,407.846159,320.21978759765625,348.32473754882807,-17.44918823242188,-0.6707858066169581,-2.923586709158761,4.213429665078922
746,407.854492,127.70156097412108,272.5511474609375,3.49101233482361,1.5523623447028958,-3.902226272894411,1.4628938752777723
747,407.862825,-62.27642822265625,261.9873046875,-25.61577033996582,2.4654129573277057,-1.9223016622115152,0.5938629714810122
748,407.871158,17.61756324768066,191.41247558593753,-60.47080230712891,1.2890611376081194,-0.9635572044216856,2.460543184864277
749,407.879491,9.89617443084717,182.1048126220703,-58.30283737182617,1.6402698049739919,-0.3036921364920479,2.7848926855593312
750,407.88782399999997,-14.26472949981689,120.63044738769533,-34.26816940307617,1.7024991950210255,0.973066115865902,2.2137972773337844
751,407.89615699999996,8.5816707611084,81.07664489746094,-28.31586265563965,1.015226013806401,1.6358233471305998,1.0123954500470846
752,407.90449,63.35228729248047,98.803955078125,-12.16985416412354,0.1139172242612255,1.2073793216627469,0.32166133121568363
753,407.912823,123.93475341796876,122.2866668701172,-29.53800392150879,0.16144942264167653,0.009430450748424489,0.8086969414535836
754,407.921156,120.28554534912108,122.35987854003906,-34.52468490600586,1.1427240955586335,-0.854694308066855,1.9554646161137794
755,407.929489,13.53128719329834,88.57734680175781,-30.32924652099609,1.694288643039003,-0.5218494668298836,2.723925843530771
756,407.937822,-5.95268535614014,9.39011669158936,-13.31508827209473,1.5624986376081194,-0.11968709984604184,1.7441259111676897
757,407.946155,-5.98573398590088,-24.50914192199707,-30.03412437438965,-0.4965566615669092,0.024121580075244894,0.5588590368932612
758,407.95448799999997,37.61434936523438,77.96687316894531,-14.74576854705811,0.47971788717775915,-0.04466825602005918,1.065792161591199
759,407.96282099999996,3.82177424430847,21.98083114624023,-6.7118935585022,0.9046549699744397,-0.20499781686432553,1.517733943705656
760,407.97115399999996,2.30195188522339,7.78133821487427,-11.48431301116943,0.27568228390752036,0.08938840457371326,0.8568401725924745
761,407.979487,12.61847305297852,17.61864471435547,-2.69849896430969,0.4260922451408541,0.01609320391197551,1.0442723060140806
762,407.98782,1.72312104701996,7.64816856384277,-5.31278991699219,0.414086312663798,0.04751237983606327,0.9955132737451673
763,407.996153,3.91170310974121,8.3193883895874,-3.33647155761719,0.41725445766838265,0.10067561451269694,0.9504488536289754
764,408.004486,7.64034175872803,6.13044595718384,1.74540507793427,0.45715346628305814,0.0005114007722204081,0.9970155054209183
765,408.012819,0.84119713306427,2.19907212257385,2.47033953666687,0.40555710695227754,0.05306035280227653,0.9677427642199459
766,408.021152,2.23064112663269,2.79537105560303,1.98387372493744,0.3702655617071653,0.08688836681599489,0.950297141561703
767,408.02948499999997,0.76963084936142,4.53383445739746,2.26142954826355,0.3915552460417459,0.08981083120618572,0.9500075359733735
768,408.03781799999996,-0.7889056801796,3.81000256538391,2.38645267486572,0.40528499350255814,0.07762113396002346,0.9558096710516479
769,408.046151,-1.82082641124725,3.07884430885315,2.55742764472961,0.39718861482581325,0.07080576857742041,0.9419625146048407
770,408.054484,-2.39356088638306,2.91263318061829,2.59720683097839,0.36911677341071936,0.05330284031069999,0.9578585138126294
771,408.062817,-3.64960622787476,4.40340709686279,1.99598944187164,0.36215176387708975,0.07814834312516836,0.9373078054311326
772,408.07115,-5.57948446273804,5.96085453033447,1.86568963527679,0.37293981532661324,0.07991907547931326,0.9366902526544061
773,408.079483,-8.76294994354248,6.86178541183472,1.6447925567627,0.38785343267479694,0.10439836249059592,0.9357549706283876
774,408.087816,-9.02793025970459,7.96140336990356,1.19874620437622,0.3885939656471724,0.10055858261731224,0.9283145593137153
775,408.09614899999997,-8.99639892578125,9.35681819915771,1.31439471244812,0.41048901421683165,0.06967025143759592,0.9508835539525866
776,408.10448199999996,-9.41854858398438,8.42750835418701,2.05367302894592,0.4051951242952928,0.06209656900289081,0.9629540540734112
777,408.11281499999996,-9.86992263793945,8.27876663208008,2.5347855091095,0.4047544391787785,0.05697603736605,0.9534892257379031
778,408.121148,-10.16989040374756,8.58767318725586,2.91620659828186,0.4064132242786643,0.07237265304643264,0.957033877470055
779,408.129481,-3.12333631515503,8.05284786224365,2.84215569496155,0.38960315743271223,0.11906875639545714,0.9162118483562857
780,408.137814,-16.19994354248047,8.27622985839844,2.35904574394226,0.44037741057726837,-0.0006255698485336734,1.0159049715314592
781,408.146147,-10.51757526397705,5.8238959312439,2.28151106834412,0.38776745601576224,0.14948432542839793,0.9047500454649633
782,408.15448,-9.98892593383789,5.9117283821106,1.80249977111816,0.41181199404658053,0.054746227605002036,0.9608175316635439
783,408.16281299999997,-8.61466884613037,5.05326652526855,1.43375670909882,0.3996722065672581,0.10352747780936122,0.9335688182285857
784,408.17114599999996,-8.02170085906982,4.62258863449097,1.03901600837708,0.40431404600338056,0.0835486638302704,0.9402068780393019
785,408.17947899999996,-7.08441162109375,4.73013019561768,0.97273904085159,0.4064642166604806,0.08630576182384898,0.9379856927054264
786,408.187812,-6.53198909759521,4.11664390563965,1.14307367801666,0.40744263298657446,0.08044495874521632,0.9394287576480785
787,408.196145,-5.84884405136108,3.44602394104004,1.23921656608582,0.4024539188462857,0.08459795494468877,0.9375804784346601
788,408.204478,-5.19191551208496,3.42005109786987,1.41362404823303,0.40478163835953673,0.09043785990500917,0.9385661689602601
789,408.212811,-4.68462514877319,3.11022114753723,1.26385748386383,0.39636152131216834,0.08981535021139693,0.9424720491681774
790,408.221144,-3.0958514213562,2.13618874549866,1.2497695684433,0.4024270359350714,0.09454465034056632,0.928486804572903
791,408.229477,-2.58308029174805,2.02028441429138,0.76870876550674,0.4014383773414459,0.08706727198192041,0.930713634101712
792,408.23780999999997,-3.64427781105042,1.16771459579468,0.37094533443451,0.3915975531753224,0.08280549122362754,0.9414109405206174
793,408.24614299999996,-4.79102754592896,0.585016310215,-0.38763299584389,0.391423069700903,0.09262907869961835,0.9329750099960642
794,408.25447599999995,-5.69029235839844,0.53750193119049,-2.07725048065186,0.38097155337431016,0.09525310020057551,0.9324319022042408
795,408.262809,-5.03226280212402,0.36747464537621,-2.86432480812073,0.39467940525132755,0.1052711569533061,0.9242790572497305
796,408.271142,-4.6309642791748,1.04694330692291,-4.02897787094116,0.37912874805683977,0.09611766557304183,0.9354435667699693
797,408.279475,-5.49039888381958,2.07205104827881,-4.70027637481689,0.41417730097867955,0.10682744639260407,0.9331697347212805
798,408.287808,-5.33645677566528,1.83153319358826,-4.59203004837036,0.3817237639913755,0.09785923422599285,0.94920742268465
799,408.296141,-6.62070369720459,2.0965895652771,-5.77318048477173,0.40327227845483876,0.0972430377590408,0.940994827114806
800,408.30447399999997,-7.35140037536621,2.27611923217773,-6.00030040740967,0.39814674124425814,0.10660704301328061,0.9499572247874979
801,408.31280699999996,-6.91298770904541,3.85925841331482,-6.56627368927002,0.36561671568422854,0.08851081132888775,0.9670384076176857
802,408.32113999999996,-8.73195838928223,4.0779275894165,-7.27012777328491,0.4125044297198857,0.12571409040567857,0.9363480003512631
803,408.329473,-6.73951625823975,6.40860605239868,-7.54682540893555,0.327604522510451,0.08075597943091836,0.9827552522931774
804,408.337806,-14.83322238922119,9.50261497497559,-8.37330913543701,0.36720886522409896,0.10206097242783571,0.9820846635468153
805,408.346139,-21.38780784606934,13.10792541503906,-10.10788154602051,0.29721226011003776,0.07280329660493469,1.0083256935586733
806,408.354472,-29.84915733337402,14.49921989440918,-11.81558895111084,0.3618630584405398,0.10465314193647754,0.9779966120817224
807,408.362805,-30.85915756225586,16.69736480712891,-12.82925128936768,0.34597192491803874,0.08457202692421122,0.9907122047580019
808,408.371138,-32.39140701293945,20.20536804199219,-13.40283203125,0.3515470757776377,0.08259905844318673,0.9846702887087447
809,408.37947099999997,-26.85913276672363,24.3754997253418,-13.06887340545654,0.36539308878840204,0.10652102986160612,0.9545625959123887
810,408.38780399999996,-14.39428424835205,31.61001586914062,-12.64698028564453,0.38926538156003365,0.12264659210127245,0.9179293379491694
811,408.39613699999995,-0.94484633207321,36.22007369995117,-12.41194343566895,0.34842221104368876,0.09827711752482857,0.9689792321652785
812,408.40447,1.7983785867691,42.75373077392578,-14.22910404205322,0.3398502846153418,0.09804843639840917,0.9604708029299367
813,408.412803,13.0503044128418,49.22820281982422,-14.49224758148193,0.34996867179870605,0.18022314626343366,0.9212510439814356
814,408.421136,32.0347785949707,58.44029998779297,-14.07880592346191,0.41076543379803054,0.2115969025358857,0.8450332953005418
815,408.429469,56.95899963378906,61.89883041381836,-15.43489265441895,0.30398152312453874,0.21402161948534895,0.9553809068640887
816,408.437802,68.16759490966797,57.06227493286133,-16.39139556884766,0.3093011038643969,0.2183846551544816,1.1991094083202132
817,408.44613499999997,93.05133056640624,-5.17434644699097,-13.87502098083496,-0.14582075634781225,0.3295242543123204,1.5157247076229172
818,408.45446799999996,158.0784454345703,52.1246223449707,-27.41472053527832,-0.43205747798997546,0.3390399047306602,-0.08468102435676428
819,408.46280099999996,159.9794921875,196.91555786132807,-45.22961044311523,0.5148600558845366,-0.025855366672788777,0.746352575263199
820,408.471134,81.95780944824219,170.18533325195312,-66.08343505859375,0.1175893812763449,0.2771852454360653,1.19585387560786
821,408.479467,125.29654693603516,231.0684967041016,-79.00703430175781,-0.04405409705882143,0.36389681757712855,0.7144234618362112
822,408.4878,10.0389928817749,167.15550231933594,-85.74421691894531,0.9409070501522141,-0.31777432986668164,1.935583036773059
823,408.496133,-11.4723424911499,270.2318725585937,-106.87008666992188,-0.14519783915305612,0.22350279652342547,1.2396885424244162
824,408.504466,-4.18335819244385,399.5002136230469,-122.48157501220705,0.3113320895603724,0.07199591519881224,2.0933441239960335
825,408.512799,36.35321807861328,564.244140625,-122.23390197753906,1.3027796453359173,0.13990621177517654,2.1714899491290653
826,408.52113199999997,71.60932922363281,623.5595092773438,-99.7017059326172,1.1035481277777224,0.714269462896853,2.7619723884426817
827,408.52946499999996,166.5582733154297,596.76220703125,-96.85897827148438,0.7320089242896255,0.9047031402587886,3.251681814388353
828,408.537798,262.6295471191406,631.0476684570312,-94.6929168701172,0.931740585638552,0.2823340162938959,0.9543538580135417
829,408.546131,471.1262817382813,789.8618164062499,-50.68049621582031,1.1837689730585834,-0.1585844463231612,1.3481429158424845
830,408.554464,416.46685791015625,820.8696289062499,-82.200927734375,0.7505832399640765,-0.020887340818132653,2.5502031676623282
831,408.562797,172.2998504638672,611.8877563476562,-63.73923110961914,1.6327647773586969,-0.04483055399388673,4.029013575339803
832,408.57113,81.58049774169922,621.3047485351562,-94.08587646484376,-0.35695282780394283,0.7930609644675745,1.7114541968520804
833,408.579463,192.6515655517578,944.1856689453123,-86.46758270263672,-0.36520237825354795,1.1451723137680365,3.383793344303053
834,408.58779599999997,243.9682159423828,168.3203887939453,-37.41312026977539,6.026821914984255,0.053662086019710196,9.807175616828761
835,408.59612899999996,153.27413940429688,-196.28712463378903,45.27524185180664,-1.2031370279740314,0.3636068713908296,2.9331141102070712
836,408.60446199999996,81.81487274169922,-34.17204284667969,47.68663787841797,0.054607178483690816,-0.38315193993704694,3.3874468900719465
837,408.612795,11.23208808898926,-193.0918884277344,42.35253524780273,0.6012185252442652,0.5184694212310164,2.2056493953782685
838,408.621128,79.8311996459961,-243.6284027099609,25.93448638916016,0.042240306430933676,-0.1441699388075847,1.6647741745929323
839,408.629461,-47.68027496337891,-278.2606201171875,-0.62820762395859,-0.2690142514754316,-0.7692618272742449,1.4339520979900744
840,408.637794,-130.84315490722656,-280.8506774902344,8.93638515472412,-0.25010880158872034,-0.3669405226804775,1.1597409540293162
841,408.646127,-171.7372283935547,-297.96014404296875,19.7336311340332,-0.13098686325306835,-0.14045945235661123,1.060508708564603
842,408.65446,-170.28985595703125,-305.0326232910156,10.60448741912842,-0.1489307929058459,0.15814335978761018,0.8473134527401049
843,408.66279299999997,-144.89144897460938,-301.0240478515625,-0.15149749815464,-0.007330227111067346,0.14980955999724693,0.8815982390423214
844,408.67112599999996,-131.3289794921875,-305.4188232421875,-9.64418601989746,0.10926301382025919,0.17101754947584488,0.8866169014755559
845,408.679459,-111.14360809326172,-307.7003173828125,-14.12407398223877,0.2272298141401643,0.17384182433692755,0.8943571363176621
846,408.687792,-95.57559967041016,-311.0160827636719,-16.60938835144043,0.3521042210715153,0.09349012253235817,0.9331983449507734
847,408.696125,-87.5760269165039,-313.3693542480469,-15.36502170562744,0.4450657902931684,0.052306816285970406,0.9305115135348571
848,408.704458,-86.03971862792969,-314.01760864257807,-13.32021331787109,0.5718312944684714,0.052631029060909176,0.9022271876432459
849,408.712791,-77.70619201660156,-319.10842895507807,-14.5996732711792,0.5968484100030397,0.059010800050229587,0.8213987155836459
850,408.721124,-76.39968872070312,-318.1589050292969,-16.75612258911133,0.618302238230803,-0.025715955666133675,0.8068153809527958
851,408.72945699999997,-84.40895080566406,-315.36572265625,-15.08905124664307,0.6681477780244786,-0.09021945145665407,0.8190853741704204
852,408.73778999999996,-96.25679779052734,-310.5170593261719,-11.45533084869385,0.7159101233190418,-0.10961577600362346,0.844738434772102
853,408.74612299999995,-108.25232696533205,-304.0321960449219,-7.78976106643677,0.7878965261031173,-0.12017076112786121,0.9156721465441643
854,408.754456,-119.03784942626952,-298.5411376953125,-4.10547733306885,0.880753458762655,-0.12304790165959592,1.0183303210200092
855,408.762789,-129.61056518554688,-294.2936706542969,-0.95143777132034,0.9524518616345458,-0.09664121939211427,1.1036931251992979
856,408.771122,-132.79776000976562,-293.04544067382807,1.58277118206024,1.0442961478719908,-0.026794334455412242,1.181595958009058
857,408.779455,-132.22755432128906,-294.3363342285156,6.15827941894531,1.0841156511890642,0.04510216566981122,1.2114661080496654
858,408.787788,-127.36100769042967,-294.8741455078125,12.29787349700928,1.0827303905876315,0.09201228618621836,1.2155983399371713
859,408.79612099999997,-121.27281188964844,-293.0060729980469,19.30854606628418,1.0621356964111326,0.06908959271956427,1.2363159413240397
860,408.80445399999996,-117.22882080078124,-289.0152587890625,25.44924354553223,1.0520912676441427,0.013724434740689793,1.282698572898398
861,408.81278699999996,-118.12339782714844,-283.51220703125,29.96184349060059,1.059916846606196,-0.05724256135979489,1.3417749988789458
862,408.82112,-122.74616241455078,-278.1343688964844,33.63539123535156,1.0773971129436877,-0.1382627292555204,1.399277667610012
863,408.829453,-130.12530517578125,-271.0569763183594,36.2882080078125,1.0734330391397284,-0.22721570365282956,1.4133928260024713
864,408.837786,-140.78443908691406,-261.01812744140625,37.83127975463867,1.0961477123961152,-0.3006551460343959,1.4142155160709307
865,408.846119,-154.9921112060547,-246.9322204589844,38.14547348022461,1.1662882201525633,-0.386915182580753,1.4960294840287194
866,408.854452,-174.3824462890625,-229.01817321777344,38.27473449707031,1.359530176435198,-0.46132267737875204,1.6529266201719948
867,408.862785,-238.8847503662109,-168.4237060546875,46.87833023071289,1.0749311836398376,-0.46639885221208877,1.020549365452358
868,408.87111799999997,-235.8694610595703,23.1887378692627,41.93051910400391,1.5221167583854827,-0.05497035931567755,2.0322254725864957
869,408.87945099999996,-182.2333831787109,-152.04266357421875,27.57347106933594,3.827824495276626,-0.533371214963952,2.462543176144969
870,408.88778399999995,-189.73239135742188,-181.68348693847656,27.34402656555176,3.1036676679338724,0.24511870072812447,1.6254248911020703
871,408.896117,-97.57371520996094,-220.38972473144528,15.44374465942383,4.154303803735849,0.0027573481202122444,1.8650640760149273
872,408.90445,-101.36102294921876,-278.7082214355469,-2.09572720527649,3.8878183948750396,-0.17486901915803266,1.2382917014919979
873,408.912783,-64.63851165771484,-309.6534423828125,-3.76397204399109,3.7709376276755817,-0.14308743330897142,0.8105483833624387
874,408.921116,-23.37875175476074,-339.9893493652344,-4.4616756439209,3.6038021165497445,-0.35460163135917855,0.07910272904804795
875,408.929449,-8.16030120849609,-348.396484375,-7.41448783874512,3.634830397002551,-0.7687461619474448,-0.660200897528201
876,408.93778199999997,-18.27350044250488,-348.2801513671875,3.09596538543701,3.510695087666414,-1.1054700734663978,-1.398299275612345
877,408.94611499999996,-115.71531677246094,-348.9517822265625,26.70547103881836,3.0141450920883486,-1.4719251710541397,-1.9653670641840724
878,408.95444799999996,-259.1979064941406,-252.54766845703125,32.53053283691406,2.7170856631532008,-1.3563860679159356,-2.8447005213523395
879,408.962781,-309.95852661132807,-88.04093170166016,35.90095901489258,1.8741105527293929,-0.46181070561311627,-2.990208061373963
880,408.971114,-228.15939331054688,117.37437438964844,65.7642822265625,1.8533893507354111,1.1951790050584439,-3.2548982269909916
881,408.979447,52.91508865356445,353.76397705078125,137.0507354736328,1.7321892173922795,1.0975235335680908,-2.7519930625448414
882,408.98778,287.9639892578125,533.765869140625,157.18746948242188,1.9517532660036674,0.6840760367257255,-1.6646704381825967
883,408.996113,472.03564453125,505.5474853515625,89.30087280273438,2.2953453842474487,0.001667804863987755,2.1701993747633326
884,409.004446,285.4312744140625,130.50271606445312,46.51165771484375,0.9267128730306816,-0.5368933872300755,4.043070734763631
885,409.01277899999997,250.7494201660156,96.87032318115234,81.72322082519531,-1.893821249202806,-0.955220533877003,1.9353309942751509
886,409.02111199999996,285.8589782714844,266.4471435546875,160.37208557128906,-1.1243973946084784,-3.679344410798987,0.36951916558401937
887,409.029445,-47.41820907592773,354.49005126953125,91.0094757080078,0.2280366664030112,-3.732202101726921,-1.1122993547089244
888,409.037778,-8.20932006835938,389.1792907714844,-13.89272689819336,1.3602092314739611,-2.253211858321209,1.0837254232289835
889,409.046111,109.35072326660156,338.4106140136719,-93.44963073730467,2.9643712724958142,-3.7311242551219705,4.181368302325813
890,409.054444,-103.09762573242188,168.93373107910156,-81.76719665527344,3.154907421189911,-1.08234201158796,4.954809072066326
891,409.062777,-109.45467376708984,95.28874206542967,-36.42539978027344,1.9565562812649469,2.3224659355319273,1.9461766067816286
892,409.07111,-1.6195615530014,80.98213195800781,-41.39655685424805,1.098287154217155,3.269280414192044,0.4553443558362061
893,409.07944299999997,212.6518402099609,97.40866088867188,-25.10024070739746,0.43894334715239897,1.0315434786738182,0.6385766730016591
894,409.08777599999996,231.72581481933597,104.22523498535156,-21.12717819213867,0.14512458626104896,-2.1469509358308754,1.4443218464754062
895,409.09610899999996,-20.20519065856934,198.5663299560547,-25.52643203735352,1.2259912490844724,-2.0453151391477,3.304308287951411
896,409.104442,-68.73161315917969,-11.34434413909912,-25.58855247497559,1.8577745009441764,0.9781159186849785,1.4424573158731264
897,409.112775,22.98030090332031,-15.71396923065186,-26.43219566345215,-0.26677839610041426,1.117627377412757,0.240083762577602
898,409.121108,94.80229949951172,74.66167449951172,-11.16693782806396,0.5130740087859479,-0.6490375557724305,1.374620126218212
899,409.129441,-38.18633651733398,13.38577556610107,-10.90293407440186,0.6821709749649979,-0.1565685685800051,1.3242712799383671
900,409.137774,18.10556221008301,24.28854942321777,-2.41943264007568,0.3630152527166877,0.29991573216963774,0.8112770197342856
901,409.146107,4.64801263809204,20.95556640625,-0.07803379744291,0.522051003514504,-0.09026046310152346,1.1306296562661928
902,409.15443999999997,3.11886644363403,12.84347724914551,2.38148355484009,0.4997429555776163,0.10059304991546938,0.9602024117294622
903,409.16277299999996,3.03418517112732,6.20413827896118,4.51051330566406,0.41324182432525,0.05049543113124592,1.0332883134180184
904,409.171106,2.71736335754395,5.97005176544189,4.79147672653198,0.3767444892805449,0.07085677312344897,0.9603539291693245
905,409.179439,1.57742702960968,6.8072772026062,4.21113348007202,0.41902955697507244,0.13640817330808058,0.9505428586687357
906,409.187772,4.56090879440308,4.98463201522827,4.70030117034912,0.4627857889447898,0.05827683575299286,0.9721393001322847
907,409.196105,0.618532538414,-0.30898448824883,5.19694900512695,0.42373798331435814,0.10484971562210407,0.965067318507603
908,409.204438,4.31945657730103,-0.86519759893417,5.13222169876099,0.3821255236255877,0.11060181929140712,0.9520518049901847
909,409.212771,2.17411065101624,0.57792121171951,4.22355699539185,0.40203189363284997,0.11014572211674285,0.9406482930086102
910,409.22110399999997,2.86341524124146,-0.13619089126587,3.8740508556366,0.41395367408285305,0.08753468795698469,0.9612469770470449
911,409.22943699999996,1.81762456893921,-1.54157996177673,3.33032441139221,0.3932180696604204,0.09920435900590815,0.9544265513517418
912,409.23776999999995,1.85618674755096,-1.27543520927429,2.31621837615967,0.3715006429321908,0.1230849660172755,0.9402409378363162
913,409.246103,1.48352515697479,-0.00778672657907,1.30312418937683,0.38276300138356734,0.11337262027117652,0.9302788364643949
914,409.254436,0.9678338766098,0.69315958023071,0.59586387872696,0.3993147489975908,0.10806340344098163,0.9378764094138632
915,409.262769,1.21680414676666,0.49393206834793,0.32809272408485,0.39473188166715606,0.11163984026227652,0.9364245862376928
916,409.271102,1.97652232646942,0.20469614863396,0.06605910509825,0.4015403621050775,0.10046535608719795,0.9358653243707152
917,409.279435,1.42000186443329,0.01976138167083,-0.13674159348011,0.3938698282047194,0.09889170223352857,0.9384216581072122
918,409.28776799999997,1.86840462684631,-0.55951732397079,-0.72402477264404,0.3852419220671357,0.09748617605287244,0.9386344831817
919,409.29610099999996,1.64854490756989,0.41605201363564,-0.72244942188263,0.38928031921386735,0.09850786048538876,0.9388005003637193
920,409.30443399999996,0.99025917053223,0.37683662772179,-0.8229341506958,0.3930859419764306,0.10110324742842652,0.9366071467496908
921,409.312767,0.6057510972023,0.77064269781113,-0.82448381185532,0.3902043615068704,0.09729472350101122,0.9398427301523633
922,409.3211,-1.55415630340576,0.81444299221039,-0.8951022028923,0.3936630122515622,0.09174208251797449,0.9397784057928591
923,409.329433,-2.09710144996643,0.5174971818924,-0.71557205915451,0.39613767546050405,0.09233783702461121,0.9428349319769407
924,409.337766,-4.01455736160278,0.64057356119156,-0.58463209867477,0.3905063745926836,0.09305224734909694,0.943454820282605
925,409.346099,-4.9560341835022,0.74461859464645,-0.77883917093277,0.38779124921681934,0.10092425711300917,0.9386121983430826
926,409.354432,-5.89461660385132,0.55871057510376,-1.71160709857941,0.3849654051722316,0.1023965465779204,0.9347243211707285
927,409.36276499999997,-5.22390747070312,1.06013476848602,-2.31484818458557,0.3912787534752673,0.10254498647183774,0.9299574092942837
928,409.37109799999996,-5.3055157661438,1.38707506656647,-2.71709442138672,0.38763999938964794,0.10526162021014183,0.9318476307148835
929,409.37943099999995,-6.13216352462769,0.76078128814697,-3.32438230514526,0.381401315027354,0.10449990934255203,0.9291189544054927
930,409.387764,-5.92485427856445,2.13948035240173,-3.9204638004303,0.3795436450413296,0.11317244597843673,0.9242334171217316
931,409.396097,-5.32449579238892,3.61315727233887,-4.23714590072632,0.3798926119901693,0.11779641618533977,0.9285331258968429
932,409.40443,-6.89754152297974,4.1021580696106,-4.05390071868896,0.3786887441362653,0.11453251449429286,0.9189383837641499
933,409.412763,-4.34031963348389,6.54719066619873,-3.78953671455383,0.38637424001888365,0.11466414344554081,0.9288922134710815
934,409.421096,-4.96141386032104,7.35521841049194,-3.49451208114624,0.3772810527256561,0.10839057211973264,0.9308666112471601
935,409.42942899999997,-3.96258687973022,9.08241176605225,-3.71912336349487,0.3880254589781469,0.10183943777668265,0.9341780020266163
936,409.43776199999996,-3.53185749053955,9.25453853607178,-3.48513722419739,0.3952045343360122,0.10028720510249285,0.9452859722838111
937,409.44609499999996,-3.57266092300415,9.7638521194458,-3.34559059143066,0.38833316491574693,0.09084648623758468,0.9502526691981724
938,409.454428,-2.32622122764587,9.85616683959961,-3.0462372303009,0.40581036587150715,0.10849591420621325,0.9398203480000398
939,409.462761,2.17728710174561,10.8941068649292,-2.58407950401306,0.42218563508014284,0.10431412531405101,0.9468478572611907
940,409.471094,4.48018646240234,9.49864387512207,-1.80399811267853,0.4264144994774643,0.10016590965037449,0.9482584194261203
941,409.479427,7.37584972381592,8.35686206817627,-0.73521828651428,0.4194431402245347,0.09669074598623774,0.9421003108121908
942,409.48776,8.67318534851074,8.68708038330078,0.40514037013054,0.40884480184438265,0.0962838652182602,0.9493527120473427
943,409.496093,9.24061870574951,11.00009822845459,-0.41778102517128,0.38251672472272547,0.0831984865422153,0.9649655283713826
944,409.50442599999997,12.46207046508789,8.98351573944092,0.69506800174713,0.385085319986149,0.1206116895286408,0.9473890187788978
945,409.51275899999996,13.19358921051025,15.21666622161865,-3.15343356132507,0.26480725833347857,0.06822670600852142,0.9848312455780653
946,409.52109199999995,5.64961862564087,19.26362800598145,-8.25052738189697,0.367658649172102,0.09817932941475714,0.9863095380822009
947,409.529425,3.45315933227539,20.57114791870117,-11.57985687255859,0.30269284637606836,0.0897773552914051,0.9861499436047612
948,409.537758,-0.84958618879318,25.57033348083496,-12.10904598236084,0.34834348425573264,0.07870197904353264,0.9882908451313877
949,409.546091,-3.56228971481323,28.88267135620117,-10.28641605377197,0.35761621533607957,0.07295820786028469,0.9855546756666529
950,409.554424,1.97393727302551,32.22866821289062,-9.6169900894165,0.3846286024366102,0.0747925712137806,0.9393106188092907
951,409.562757,8.25591468811035,37.08322143554688,-8.20218849182129,0.3937720522588612,0.0869978994739296,0.9333700063277265
952,409.57108999999997,15.1078405380249,42.09864807128906,-6.55165910720825,0.3824141074200061,0.13133941864480816,0.9371937537679866
953,409.57942299999996,29.25893592834473,44.03030395507812,-5.11800575256348,0.34891836497248463,0.12288825852530307,0.9651287234559347
954,409.58775599999996,33.64792633056641,46.59566879272461,-4.42360353469849,0.3438915281879663,0.11444260879438775,0.9545965583956969
955,409.596089,31.31270217895508,54.1871223449707,-3.30844831466675,0.3974415574754989,0.11752086026327958,0.9235480366920937
956,409.604422,38.68953704833984,59.68727493286133,-4.67564344406128,0.32459268764573673,0.17351275804091426,0.9606340953281949
957,409.612755,48.19854354858398,70.34868621826172,-6.33278942108154,0.31312317264323364,0.10444900211022856,1.0313329891282683
958,409.621088,35.75247573852539,30.62512016296387,-8.26261806488037,0.22012484316923162,0.14028444582102245,1.6389449761838324
959,409.629421,44.4041862487793,-19.47559356689453,-9.33547401428223,-0.9090101475618326,0.3665954726082939,0.9384582480605765
960,409.637754,115.266357421875,181.1431579589844,-30.94132041931152,0.3143299112514571,0.19167726137200203,-0.5050090867645887
961,409.64608699999997,62.03329467773438,225.5952606201172,-56.48464965820312,0.3089831556592673,0.11290277753557447,1.5570085875842041
962,409.65441999999996,83.17080688476562,228.9247131347656,-65.03628540039062,0.10879476459658877,0.27403792556451323,0.8138367594504846
963,409.662753,-17.93184471130371,178.76268005371094,-68.22833251953125,0.8065918513706755,-0.3041190760476245,1.8796255150619814
964,409.671086,-21.78285026550293,292.5628967285156,-79.5072021484375,0.01052049349765408,0.14857652236004285,1.4246661322457448
965,409.679419,-1.28270947933197,430.23486328125,-85.9917221069336,0.45260555890141735,0.1656089266952204,2.1424661363874162
966,409.687752,42.43076324462891,569.1500244140625,-82.32667541503906,1.2982039548912825,0.21765550788567958,2.1932771254558947
967,409.696085,59.93363952636719,601.7344360351562,-64.77745056152344,0.9685099854761243,0.8843505625822102,3.1345094953264505
968,409.704418,170.1862335205078,566.0711669921875,-75.51811218261719,0.763756061086849,0.40366408776263774,2.5666429558578803
969,409.71275099999997,293.017578125,678.6851196289064,-53.59128570556641,1.331448165737853,0.3048198320427724,0.6602435695881745
970,409.72108399999996,392.0418701171875,787.2002563476561,-60.87457275390625,0.9468824036267336,-0.24579393620393672,1.6321014871402661
971,409.72941699999996,263.8812255859375,711.3197021484375,-64.06727600097656,1.5165982927594868,-0.1808142175479806,3.544842856270926
972,409.73775,53.13991165161133,547.2578125,-65.74484252929688,0.5484958570830673,0.1232452416906551,2.368570055280413
973,409.746083,126.6406021118164,721.8074340820312,-100.89052581787108,-0.9630029055537009,0.8872133371781326,0.7333818747072806
974,409.754416,115.76822662353516,871.3850708007811,-50.89292526245117,1.9805147209945988,-0.07213594962139488,6.0645473246671715
975,409.762749,121.16389465332033,-13.33185577392578,-31.14297103881836,3.564715093495895,0.5171819609038684,6.701179037288743
976,409.771082,157.21070861816406,-23.28429412841797,-6.11518907546997,-0.7930571205761969,-0.40657573816727655,2.6916359881965475
977,409.779415,-27.92314910888672,0.83464056253433,-0.9516464471817,0.24607030712828365,-0.14299763708698468,3.0960328238351
978,409.78774799999997,7.17025232315063,-107.38099670410156,3.0809497833252,0.0322718948734051,0.2300034007247612,2.1237795693533763
979,409.79608099999996,-10.52705001831055,-146.43527221679688,-13.98327159881592,0.138429354648201,-0.12789885608517346,1.6487512783128386
980,409.804414,-42.03429412841797,-182.1327667236328,-35.72092437744141,-0.035961215593376526,-0.09764007767852448,1.111249047882703
981,409.812747,-89.24645233154297,-206.1246795654297,-40.12949371337891,-0.11026420155349999,-0.14286316170984387,1.0307827774359255
982,409.82108,-114.79279327392578,-221.8285675048828,-30.35921096801758,-0.10421062002376631,0.039931763799823466,0.9601729256766183
983,409.829413,-128.24244689941406,-237.0106506347656,-26.53983116149902,-0.012658759951591837,0.20335445598680102,0.8768638299435988
984,409.837746,-116.55412292480467,-248.8651885986328,-28.98629951477051,0.014405505997793876,0.3544651488868561,0.8349312568197448
985,409.846079,-104.5327606201172,-255.8778839111328,-30.17094802856445,0.08281867114864999,0.38305508847139286,0.8732269248183887
986,409.85441199999997,-89.15038299560547,-263.6734924316406,-26.70895576477051,0.1811576984366592,0.41912458380874285,0.9049685147343847
987,409.86274499999996,-74.39090728759766,-270.54034423828125,-20.98632431030273,0.2727680546896796,0.4176316455918918,0.9369188425492265
988,409.87107799999995,-63.22079086303711,-275.5176696777344,-11.83872222900391,0.39777203482024487,0.3571088216742694,0.9899338897393674
989,409.879411,-61.15517044067383,-281.1898803710937,-1.3850884437561,0.5045330281160316,0.38995910663993977,0.9531030849534643
990,409.887744,-46.52480316162109,-289.9281311035156,4.11074447631836,0.5597087315150673,0.3984670979636051,0.8862610252536071
991,409.896077,-39.0036506652832,-296.2248840332031,5.66598129272461,0.5855646911932499,0.26796314181113773,0.8697511711899111
992,409.90441,-43.95584106445312,-301.13836669921875,8.73347663879395,0.6139886135957683,0.15590622717020508,0.8603639018778898
993,409.912743,-55.98065948486328,-302.4998474121094,13.96576690673828,0.6225240473844571,0.0965804652291898,0.8360938636624081
994,409.92107599999997,-68.61348724365234,-299.93487548828125,15.88722705841064,0.6484038975774019,0.046702252358806116,0.8447343475964603
995,409.92940899999996,-82.14613342285156,-295.15155029296875,15.29296588897705,0.7053696379369622,0.01616288812793061,0.8912207155811541
996,409.93774199999996,-97.03028106689452,-290.3830871582031,15.4846363067627,0.7681753684063346,-0.01053790200729796,0.9571771232449274
997,409.946075,-110.62106323242188,-286.3070373535156,15.82918739318848,0.8410249437604633,-0.00999630029712449,1.0331329034299264
998,409.954408,-120.98434448242188,-284.4605712890625,15.635329246521,0.9161454804089603,0.03955245018005408,1.0885516964659396
999,409.962741,-125.03128814697266,-285.0091552734375,15.64497661590576,0.9786467649498766,0.11768304571813468,1.1309807641165601
1000,409.971074,-124.40159606933594,-286.32342529296875,16.36206436157227,1.0085278141255285,0.1711581069595959,1.162310619743503
1001,409.979407,-121.2133331298828,-286.0541076660156,17.96597290039062,1.0139460466345958,0.19913977506209388,1.1845806666782928
1002,409.98774,-117.17076110839844,-285.0687866210937,20.89472770690918,1.0247868907694917,0.20119811807359997,1.2315520461724725
1003,409.99607299999997,-116.84261322021484,-281.7252197265625,24.34636688232422,1.0305545767959285,0.1469764295889408,1.3055184422707071
1004,410.00440599999996,-120.76040649414062,-277.4044189453125,27.90006446838379,1.0524163927350723,0.08892184009357347,1.3990101522328897
1005,410.01273899999995,-127.93531799316406,-271.96929931640625,31.46658325195312,1.0835764359454714,0.02589552986378571,1.4821569287047092
1006,410.021072,-137.88723754882812,-267.7662048339844,34.20758819580078,1.137436847297512,-0.031060628136810205,1.5472368318207408
1007,410.029405,-150.10171508789062,-261.1083068847656,37.47148895263672,1.2426026013432714,-0.09671425332828469,1.6448791659608182
1008,410.037738,-164.25424194335938,-256.1960144042969,41.35994720458984,1.4732655700372193,-0.21707247714607042,1.847258781900211
1009,410.046071,-179.26373291015625,-255.6167449951172,44.45586013793945,1.6457228757897204,-0.5537489968903214,2.102485384259905
1010,410.054404,-255.23663330078125,-158.00509643554688,60.55516052246094,1.1880396823493804,-0.5380690341093102,1.2382407091101826
1011,410.06273699999997,-247.0963592529297,-25.21111488342285,53.00611114501953,2.7671597928416967,0.552420616149902,2.3212680038140743
1012,410.07106999999996,-108.48130035400392,-271.861572265625,29.46855163574219,3.8617137986786507,-0.6800248671551142,2.5521739648312938
1013,410.07940299999996,-131.39047241210938,-226.81439208984372,18.06520080566406,3.443425626170878,-0.05570981575518265,1.6336197755774673
1014,410.087736,-55.25785064697266,-290.23028564453125,1.29464292526245,4.500541687011718,-0.5744423671644561,1.6783957578697979
1015,410.096069,-59.20576858520508,-330.98052978515625,-8.72119808197021,4.117970369300063,-0.7368661432850122,0.5183764379851673
1016,410.104402,-64.97909545898438,-333.0518798828125,-9.48423671722412,3.829137062539859,-0.7919645796016775,-0.18477573686716528
1017,410.112735,-42.41820526123047,-335.0277709960937,8.49827480316162,3.52294026588907,-0.949608257838658,-0.9597376414707725
1018,410.121068,-57.29529571533203,-333.68069458007807,40.62149810791016,3.3657930335220017,-1.3369511584846336,-1.4420703965790416
1019,410.129401,-155.0260009765625,-297.4669189453125,61.72549819946289,3.235608120353854,-1.528420934871751,-2.1288215870759926
1020,410.13773399999997,-253.2370758056641,-173.08514404296875,59.74810409545898,3.158072452155911,-1.1102737699236183,-3.0029413651446903
1021,410.14606699999996,-233.9385223388672,16.19076347351074,74.51211547851562,2.863097093543227,-0.27625159341461836,-3.432669736901108
1022,410.1544,-72.13206481933594,204.38220214843753,120.21552276611328,2.6697314515405774,0.3692237211733449,-3.2430090223039896
1023,410.162733,124.98907470703124,280.0445556640625,157.614501953125,3.077013833182199,1.0030281300447428,-2.2549854979223127
1024,410.171066,370.10083007812494,205.07601928710935,117.64485931396484,-0.05975789561563571,0.6920329405336959,-0.5489544965782949
1025,410.179399,368.6451110839844,267.97442626953125,48.44497299194336,-1.5469390518811286,-0.5208376962311418,2.0026753873241194
1026,410.187732,342.9721374511719,346.742431640625,63.31876373291016,-2.1806092164954354,-1.7673854438626038,2.488481755159339
1027,410.196065,309.8378601074219,403.2484130859375,108.39354705810548,-0.13646068621654897,-4.986886394267179,1.7681717386051103
1028,410.20439799999997,-60.6398811340332,410.2111206054688,56.26694869995117,2.121754081881776,-3.602067597058355,-0.37907247640648667
1029,410.21273099999996,10.59204578399658,293.25018310546875,-37.83351516723633,2.405676355167311,-2.5111132251973047,1.7968070750333824
1030,410.22106399999996,19.93466949462891,263.82424926757807,-95.23025512695312,1.573474650480309,-2.7013735868492907,3.3760818170041444
1031,410.229397,-124.98764038085938,196.76745605468753,-65.28279113769531,2.7055572976871405,0.059947286333356116,4.0139548632563375
1032,410.23773,-134.58180236816406,124.99339294433594,-40.05833435058594,2.481392840949856,3.234437631101024,2.2073484926807634
1033,410.246063,13.48532390594482,68.49227142333984,-33.07453918457031,1.8277271426453878,3.4615353175571983,0.995791201688805
1034,410.254396,263.7686462402344,34.23801422119141,-17.8532543182373,0.28341867485824895,-0.35276381336912854,0.6939269085319674
1035,410.262729,167.18984985351562,98.98397064208984,-3.50392627716064,-0.3619642160376724,-2.8040987131546955,1.6904212017448579
1036,410.271062,-94.20240783691406,154.7957000732422,-18.01226425170898,1.5443221890196508,-1.3367886445960222,2.9385893685477122
1037,410.27939499999997,-34.55142593383789,-35.61794281005859,-23.96262741088867,1.1681582003223652,1.360642764033103,0.9844267125032387
1038,410.28772799999996,48.33325576782227,13.34895610809326,-20.31535339355469,-0.2474121901453755,0.7951609942377826,0.2708711672802357
1039,410.296061,51.03580093383789,63.68919372558594,-7.97628211975098,0.6792431948136306,-0.9418379530614733,1.776075752414003
1040,410.304394,-32.07633590698242,1.66857659816742,-7.36475133895874,0.46713663607227546,0.3212958452652908,0.8968583904967019
1041,410.312727,25.82819747924805,29.47330093383789,-1.85256457328796,0.4186346579571163,0.060570325170244896,0.9607234293100785
1042,410.32106,-1.81934082508087,14.68447685241699,0.83658665418625,0.5652977982345887,-0.05642297316570714,1.0837728150036865
1043,410.329393,1.78961563110352,8.18355751037598,4.1935887336731,0.4035644385279438,0.07150666446101937,0.9871328120328938
1044,410.337726,3.37667369842529,8.95695209503174,5.43324089050293,0.3838046959468296,0.04498107396826428,0.9882270073404122
1045,410.34605899999997,-1.80302464962006,8.58567428588867,4.86795997619629,0.3942267992058581,0.12187460247351223,0.9608944094910918
1046,410.35439199999996,1.93892121315002,9.09294033050537,4.78051376342773,0.4378153353321306,0.11010746566616733,0.9589800542714642
1047,410.36272499999995,-1.53532993793488,4.75119686126709,4.97607707977295,0.42957748685564284,0.08335370798500204,0.9756819082766163
1048,410.371058,0.66415160894394,3.53869652748108,4.97267150878906,0.38037314706919184,0.12765266457382551,0.9417991248928775
1049,410.379391,-0.46770313382149,4.96161794662476,3.97727608680725,0.3928865461933367,0.11398792266845714,0.9519290924072265
1050,410.387724,0.2816669344902,4.11597728729248,3.36021637916565,0.41367628136459694,0.1199847338150959,0.9492579284979378
1051,410.396057,0.47365841269493,2.72252416610718,3.11517763137817,0.4089436239125775,0.08422801081015101,0.9596237844350388
1052,410.40439,0.23800750076771,1.68499386310577,2.45281910896301,0.3824532275297204,0.1360287714977653,0.9435226479355173
1053,410.41272299999997,-0.25223615765572,2.7730610370636,0.84275954961777,0.37293791770935103,0.1189299383941959,0.9370289043504366
1054,410.42105599999996,-0.63406753540039,4.07098531723022,-0.02562704309821,0.39635512293601527,0.11446738729671531,0.937454359872001
1055,410.42938899999996,-1.33492422103882,3.90121412277222,-0.4078426361084,0.40196190074998467,0.10769209083245714,0.9417324650044346
1056,410.437722,-0.73829191923141,3.40045642852783,-0.50476694107056,0.4100465287967602,0.10034747877899489,0.944677177740603
1057,410.446055,-0.65075522661209,2.6457200050354,-0.17927403748035,0.41001081466674794,0.09958564018716631,0.9443193552445388
1058,410.454388,-0.40885439515114,1.64361417293549,0.0571325533092,0.39814287302445406,0.09393066167831428,0.9444026557766663
1059,410.462721,-0.34693205356598,2.11720871925354,0.29902058839798,0.39583967656505303,0.10055821160880918,0.9414188229307836
1060,410.471054,-0.89840638637543,2.29317808151245,0.10258500277996,0.3862358112724459,0.10471258844648061,0.9329791944854111
1061,410.479387,-1.43084955215454,2.92275071144104,-0.06005256995559,0.3951517903074928,0.10504008555898876,0.9381834341555223
1062,410.48771999999997,-1.48405039310455,2.43838572502136,-0.2481123059988,0.39647946552354485,0.10411912081192959,0.9333199870829683
1063,410.49605299999996,-1.87871444225311,2.17281699180603,-0.26253306865692,0.40227542118150406,0.09703986498774285,0.9383242470877509
1064,410.50438599999995,-1.85335648059845,2.07143616676331,-0.06988844275475,0.39851052420479893,0.09614785106814591,0.9412280880675019
1065,410.512719,-2.28505849838257,1.80174374580383,0.06114117801189,0.39862669244104487,0.10473475164296632,0.9383661892949315
1066,410.521052,-1.87383508682251,1.99078965187073,0.15536315739155,0.3995903170838653,0.09713422278968672,0.936871158833406
1067,410.529385,-1.78538918495178,1.58703243732452,0.66936403512955,0.4002076022479,0.09411055822761734,0.939200946262904
1068,410.537718,-1.26433157920837,1.09745466709137,1.09920930862427,0.39229611961209077,0.09159374601986939,0.9369119332761183
1069,410.546051,-1.01682102680206,1.28502774238586,1.20507287979126,0.384910398600053,0.10952820583265611,0.927244011236697
1070,410.55438399999997,-0.52620595693588,2.71125364303589,0.71776205301285,0.3819613554039775,0.11160072015256327,0.9243499989412265
1071,410.56271699999996,0.59962916374207,2.21923017501831,0.66422826051712,0.3802645449735683,0.10863712855747754,0.9314143900968592
1072,410.57104999999996,1.49415516853333,3.41213607788086,-0.03738397359848,0.3792224124986296,0.10576648371560203,0.9248910631452285
1073,410.579383,-0.0061346096918,3.5155668258667,-0.21358431875706,0.38870339490929384,0.09432849227165714,0.9322170335419325
1074,410.587716,-0.42315989732742,3.73349189758301,-1.34591257572174,0.3809862720723051,0.10738938438649082,0.9322482712414796
1075,410.596049,-1.04059112071991,4.40092277526855,-2.19456362724304,0.3825999036127204,0.10132428334683775,0.9341868575738397
1076,410.604382,-1.30591607093811,4.18154954910278,-2.60391736030579,0.4066858972821918,0.09978940900491223,0.9444301955553948
1077,410.612715,-1.13696467876434,3.64877343177795,-3.42984843254089,0.38502133622461426,0.09669502778929082,0.9332757093468489
1078,410.621048,-0.5335573554039,4.28555631637573,-3.7219409942627,0.39704714502607036,0.09625923268649081,0.9477037313033121
1079,410.62938099999997,1.1631680727005,3.50821542739868,-4.08635473251343,0.41319151313937447,0.10568469154591428,0.9381970580743285
1080,410.63771399999996,0.90571928024292,4.2121205329895,-4.19221830368042,0.3775886856779765,0.09371154770559183,0.9441575225518674
1081,410.64604699999995,-0.99461352825165,6.65310478210449,-4.87621974945068,0.40071728278179586,0.1048576953459755,0.9415331665350469
1082,410.65438,2.64364504814148,3.6420750617981,-2.59368443489075,0.41628355882605717,0.13018839213312855,0.9328389654354172
1083,410.662713,-0.79643642902374,7.49079513549805,-3.09072947502136,0.36595923560006327,0.10346570793463265,0.9347497200479316
1084,410.671046,1.81663846969604,8.25284290313721,-2.783127784729,0.39613813770060613,0.12238517099497244,0.9452991096340878
1085,410.679379,-0.03203060105443,11.85566520690918,-3.46951293945312,0.3466656743263714,0.10980103697095611,0.9587377431441326
1086,410.687712,-5.54923582077026,16.95576858520508,-5.02078866958618,0.31588877950395816,0.09641965433042857,0.9680176754387061
1087,410.69604499999997,-13.12780094146729,21.46032333374023,-7.14392995834351,0.34369412733584076,0.11293554792598774,0.9767776606034255
1088,410.70437799999996,-17.87259101867676,22.87021446228027,-8.75783538818359,0.3206580025809153,0.10121631379030203,0.9910721681555917
1089,410.71271099999996,-21.1236629486084,27.27639007568359,-9.71365928649902,0.3399864021612673,0.09463225700417346,0.9751332536035652
1090,410.721044,-16.92517280578613,30.61873817443848,-8.79679489135742,0.3931986069192694,0.10525194966063162,0.9694432239143214
1091,410.729377,-8.3784646987915,33.99073028564453,-5.63410043716431,0.42381067665255817,0.12273112121893469,0.9244117931443815
1092,410.73771,6.80655574798584,37.42117309570312,-2.13941860198975,0.3990399594209632,0.1408827183197959,0.9352873782722315
