,timestamp,GyrY,GyrX,GyrZ,AccY,AccX,AccZ
163,403.004686,-0.34522867202759,-1.30639004707336,0.17713524401188,-0.8702507797552612,-0.48460001848181933,-0.02241468247102245
164,403.013019,-0.31072628498077,-1.39368319511414,0.09675776958466,-0.8713857495054907,-0.4844876211516714,-0.022157762123614286
165,403.021352,-0.19121026992798,-1.31750667095184,0.02875198237598,-0.8733344564632489,-0.48047177645624894,-0.01944332858737653
166,403.029685,-0.13497422635555,-1.26004111766815,-0.0335418432951,-0.8726511196214327,-0.48342636653355203,-0.023654012047514286
167,403.03801799999997,-0.02707424759865,-1.21535706520081,-0.20839741826057,-0.8697345305462274,-0.48013093520183975,-0.021055640310657143
168,403.04635099999996,0.14393918216228,-1.26486933231354,-0.21013917028904,-0.8711899543295101,-0.4804031702936908,-0.025733447804742855
169,403.054684,0.1595638692379,-1.38046646118164,-0.3355720937252,-0.8708098469948286,-0.48028420428840507,-0.02365838964374694
170,403.063017,0.43355932831764,-1.18756544589996,-0.48095840215683,-0.8694704211488061,-0.4783354000169408,-0.021965797154270408
171,403.07135,0.71129447221756,-1.17296552658081,-0.48521044850349,-0.8662407738821847,-0.47652974420664285,-0.024725484604737752
172,403.079683,1.00888061523438,-1.28205645084381,-0.61294859647751,-0.8696507434455714,-0.47950773823017956,-0.02339094269032347
173,403.088016,1.06228625774384,-1.30674862861633,-0.71548241376877,-0.8667654893836194,-0.47492562508096525,-0.026875399813360203
174,403.096349,1.33287501335144,-1.286257147789,-0.75052267313004,-0.8689412292169061,-0.4758326861323142,-0.023435250836975507
175,403.10468199999997,1.61196792125702,-1.30549347400665,-0.82267796993256,-0.8683654240199499,-0.4779655106213632,-0.02312609735800306
176,403.11301499999996,1.78012537956238,-1.28940796852112,-1.05943048000336,-0.8677987663113337,-0.47747504954435405,-0.025322315644244895
177,403.12134799999995,1.88936996459961,-1.32936596870422,-1.14828622341156,-0.8693476112521428,-0.4800688490575673,-0.02455397528045
178,403.129681,1.86708581447601,-1.2425594329834,-1.11859917640686,-0.8716662076054784,-0.48226040236803974,-0.025544634887149996
179,403.138014,2.07745552062988,-1.39429795742035,-1.37374269962311,-0.8673902433745715,-0.48196228183045714,-0.026802256399271425
180,403.146347,2.13754606246948,-1.25844013690948,-1.49459052085876,-0.8708267795796295,-0.4840690262463632,-0.0233464764089
181,403.15468,2.18357515335083,-1.20283174514771,-1.55196642875671,-0.8686739084671957,-0.4854023699857755,-0.02863772061406326
182,403.163013,2.21723222732544,-1.16046583652496,-1.541823387146,-0.8679262472658744,-0.48339653988273773,-0.024336615995484694
183,403.17134599999997,2.3376190662384,-1.01077616214752,-1.54645931720734,-0.8692517572519733,-0.4882995449766816,-0.024741929100484693
184,403.17967899999996,2.17778635025024,-1.11351490020752,-1.49525654315948,-0.8676648626522141,-0.4895420950286245,-0.02218465111693571
185,403.18801199999996,2.15345287322998,-1.10644543170929,-1.45637428760529,-0.8671101745294061,-0.48967161957098465,-0.023809958781515303
186,403.196345,1.87167084217072,-1.22480869293213,-1.38775384426117,-0.8661534834881214,-0.4904526107165275,-0.02679495178923265
187,403.204678,1.73696541786194,-1.13692629337311,-1.30184352397919,-0.8649742360017734,-0.48962208689475506,-0.02464409385408673
188,403.213011,1.59995472431183,-1.23986983299255,-1.35022878646851,-0.8662578037806917,-0.48807504225750403,-0.026577869240118367
189,403.221344,1.34645056724548,-1.18164873123169,-1.32925069332123,-0.864159039088658,-0.49026119465730605,-0.026867471787393876
190,403.229677,1.29978168010712,-1.21976268291473,-1.37023365497589,-0.8640827451433459,-0.48816880401299895,-0.02747170779169796
191,403.23801,0.93803161382675,-1.23023891448975,-1.33931708335876,-0.8638496788180602,-0.4897996357509071,-0.023619806279941837
192,403.24634299999997,0.76656997203827,-1.30362355709076,-1.34233951568604,-0.8645842999828101,-0.4886822311245663,-0.025523399211922447
193,403.25467599999996,0.585016310215,-1.23256981372833,-1.46531367301941,-0.8645371028355193,-0.4890401995911887,-0.025733694130060204
194,403.26300899999995,0.50996661186218,-1.25518691539764,-1.47248554229736,-0.8668616353249061,-0.48538762695935306,-0.025858483752425505
195,403.271342,0.42654103040695,-1.25500774383545,-1.41493010520935,-0.8638418937215999,-0.4883689783057388,-0.025202142340795916
196,403.279675,0.32897642254829,-1.17570614814758,-1.26063013076782,-0.8641202109200612,-0.4885996117883796,-0.02657320426434898
197,403.288008,0.36522051692009,-1.26435708999634,-1.32640743255615,-0.8654941831316264,-0.489703976378149,-0.026180680309023468
198,403.296341,0.30779346823692,-1.14271521568298,-1.27115762233734,-0.8677820283539439,-0.4920361479934377,-0.026662428768313262
199,403.304674,0.13008189201355,-1.15752005577087,-1.20701956748962,-0.867301979843451,-0.49142365552941114,-0.02857704855957857
200,403.31300699999997,0.16537830233574,-1.09294664859772,-1.08952701091766,-0.865788849032655,-0.4896756094329214,-0.02380582903112653
201,403.32133999999996,0.17176906764507,-0.9419379234314,-0.85329985618591,-0.8674785069056917,-0.49002520892084894,-0.024614537857016325
202,403.32967299999996,0.17516294121742,-1.016974568367,-0.72416561841965,-0.8651151462477081,-0.489650794437953,-0.025470690155516326
203,403.338006,0.02396211773157,-0.8484588265419,-0.67175894975662,-0.8652247214803888,-0.4885807815863163,-0.028196780049071425
204,403.346339,0.10756697505713,-0.74904978275299,-0.66801923513412,-0.8649523404179784,-0.4855627429728601,-0.029498922581575507
205,403.354672,0.25469514727592,-0.56913548707962,-0.66678977012634,-0.8680508088092418,-0.487529744907301,-0.028225995448170404
206,403.363005,0.14837045967579,-0.66362637281418,-0.62383466959,-0.870603931193449,-0.48831803458077544,-0.027089569033408162
207,403.371338,0.03366991132498,-0.57267022132874,-0.87098634243011,-0.8690018556555917,-0.4892194027803377,-0.027256696199884693
208,403.379671,-0.10968015342951,-0.53163623809814,-0.96066182851791,-0.8699273089973295,-0.4891405786786765,-0.027728944408649998
209,403.38800399999997,-0.40293750166893,-0.41901046037674,-1.07981932163239,-0.870855000554299,-0.48533206083336633,-0.026385960530261224
210,403.39633699999996,-0.65715873241425,-0.53663098812103,-1.11949563026428,-0.8692317106285876,-0.48776548735949493,-0.027353055014902036
211,403.40467,-0.71750599145889,-0.47618141770363,-1.19792652130127,-0.8671157214106346,-0.4864056742921163,-0.026975742408207142
212,403.413003,-0.77849340438843,-0.4963141977787,-1.10773873329163,-0.8656713913898082,-0.4872910830439357,-0.025046628956891834
213,403.421336,-0.80820596218109,-0.49172928929329,-0.91089338064194,-0.866413603023607,-0.48802385524827646,-0.02643559356125
214,403.429669,-0.97951394319534,-0.56006813049316,-0.8320015668869,-0.8648312821680183,-0.4875472127174847,-0.025919602841746936
215,403.438002,-0.92782443761826,-0.49913176894188,-0.66261458396912,-0.8641050299819633,-0.48441750662667443,-0.024617457268189796
216,403.446335,-0.84112018346786,-0.5060476064682,-0.50798147916794,-0.8637787371265643,-0.48680573093647855,-0.025663348485012245
217,403.45466799999997,-0.9202938079834,-0.43699163198471,-0.33772367238998,-0.8620183321894427,-0.4825227601187571,-0.026918774356646937
218,403.46300099999996,-0.77790421247482,-0.3942414522171,-0.11828653514385,-0.8640291252914745,-0.4823767895601234,-0.02566483860113163
219,403.47133399999996,-0.67201501131058,-0.37016409635544,-0.06867176294327,-0.8628218514578683,-0.4809287129616255,-0.02788440913570204
220,403.479667,-0.5157682299614,-0.42784735560417,0.05482726544142,-0.8624496265333531,-0.4794966444677234,-0.02504589910409898
221,403.488,-0.3698183298111,-0.34780290722847,0.13374473154545,-0.8625518059243958,-0.4757092923534163,-0.02758369762070306
222,403.496333,0.03981732577085,-0.34652218222618,0.04332647845149,-0.8637801968321509,-0.47586985996791326,-0.02673849463462857
223,403.504666,0.40369316935539,-0.21217550337315,0.09970341622829,-0.866575046461456,-0.47653631288178167,-0.028283659900937754
224,403.512999,0.8889291882515,-0.14104478061199,-0.03926661983132,-0.8648925898026448,-0.4759785593772418,-0.027983666074519385
225,403.521332,1.34916579723358,-0.13251523673534,-0.10668328404427,-0.8696266096465437,-0.4782281116563449,-0.030582054537169383
226,403.52966499999997,1.62026679515839,-0.03185130283237,-0.09858918935061,-0.8693178332581815,-0.4787667916745551,-0.03089736310803163
227,403.53799799999996,1.7839161157608,-0.04081628099084,-0.19251658022404,-0.8665990829467775,-0.4795832050089929,-0.027097819411024487
228,403.546331,2.02725148200989,-0.0141518637538,-0.25939536094666,-0.8650004133886223,-0.48052880228782135,-0.02853297457403061
229,403.554664,1.8928279876709,0.03509150072932,-0.16336758434772,-0.86432797568185,-0.48319738738390816,-0.029961299531314284
230,403.562997,1.94810342788696,0.02192578464746,-0.20862792432308,-0.8646582583991846,-0.4831958790214694,-0.02913315685427959
231,403.57133,1.69890248775482,0.12720027565956,-0.09840988367796,-0.863550341859156,-0.4859402228374867,-0.031398051247305096
232,403.579663,1.70704805850983,-0.17654612660408,-0.1604475826025,-0.8663244636691346,-0.4838278342266469,-0.029903264070043876
233,403.587996,1.75599658489227,-0.0877927839756,0.02429510094225,-0.8679401631257969,-0.4838539142997898,-0.025120449005340814
234,403.59632899999997,1.87884247303009,-0.22144785523415,0.07539549469948,-0.8673305900729428,-0.4846986945794551,-0.027645540480711224
235,403.60466199999996,1.93124902248383,-0.17956857383251,0.07864850014448,-0.8658783776419499,-0.4827001143474969,-0.028460345097951017
236,403.61299499999996,2.11193227767944,-0.12544570863247,0.04266050830483,-0.866831176135005,-0.48565251486642036,-0.02901810164354286
237,403.621328,2.1395697593689,0.07761112600565,-0.16421286761761,-0.865885189601353,-0.48482666210252445,-0.027177251723347954
238,403.629661,2.28244614601135,-0.05052407830954,-0.13654947280884,-0.8688951998340836,-0.48504386629377144,-0.024998130238785714
239,403.637994,1.96723735332489,-0.08195273578167,-0.1899039298296,-0.8652238456570366,-0.48886756507717855,-0.030087329903427548
240,403.646327,1.87599921226501,-0.06443261355162,-0.14802466332912,-0.8656963036984816,-0.4874625011366244,-0.026542641678634692
241,403.65466,1.76931607723236,0.07118196040392,-0.29174613952637,-0.8646766506895724,-0.48660219932089077,-0.028640110881961223
242,403.662993,1.8821724653244,-0.0623578466475,-0.08637119084597,-0.8639914648873468,-0.4856187470105224,-0.024734907308403057
243,403.67132599999997,1.84891211986542,-0.03342657536268,0.06116679310799,-0.8647721154349194,-0.48783073619920403,-0.024152291672570405
244,403.67965899999996,1.97429394721985,-0.05960432067513,0.07981395721436,-0.8655941243074378,-0.4839491844177245,-0.02723824612948367
245,403.687992,2.13995409011841,0.00624987343326,0.18102861940861,-0.8655926646018509,-0.48723848498597444,-0.023610424630495917
246,403.696325,1.97686803340912,-0.20518282055855,0.27449491620064,-0.864536908208107,-0.4880037113111847,-0.024930799798089792
247,403.704658,1.56104683876038,-0.32029318809509,0.31347984075546,-0.8646429801473815,-0.4870495017693969,-0.026557485059816324
248,403.712991,1.22555136680603,-0.37341710925102,0.35891944169998,-0.8628007343837193,-0.48550007294635406,-0.027178595868908164
249,403.721324,0.69426101446152,-0.54252231121063,0.2833831012249,-0.863668578011649,-0.4871173780791612,-0.02814350991832959
250,403.729657,0.31409454345703,-0.66444611549377,0.16909237205982,-0.865629059927804,-0.48290885224634283,-0.028034764893201017
251,403.73798999999997,0.1481399089098,-0.63560438156128,0.0877927839756,-0.8659516548623847,-0.4795616500231683,-0.030801746310020407
252,403.74632299999996,0.32492938637733,-0.75934678316116,-0.08350241184235,-0.8652808714886102,-0.4800528409529704,-0.030103979670271428
253,403.75465599999995,0.62397557497025,-0.72714972496033,-0.23910889029503,-0.8669763681839917,-0.4767216954912459,-0.032130139214652034
254,403.762989,0.85791033506393,-0.64149576425552,-0.31853863596916,-0.866734835566306,-0.4781930787222724,-0.030698104172336732
255,403.771322,1.03676164150238,-0.67603647708893,-0.45750865340233,-0.86899961744036,-0.47767342353353676,-0.03317970402386734
256,403.779655,1.2401260137558,-0.77281987667084,-0.668172955513,-0.8671529925599387,-0.47535521643502343,-0.030652832011787756
257,403.787988,1.64641892910004,-0.65535295009613,-0.84309250116348,-0.8669228456458264,-0.47740537293103263,-0.031762582306959185
258,403.796321,1.96897900104523,-0.64308375120163,-0.97777211666107,-0.8687608096064356,-0.47884050680666523,-0.03372178393967347
259,403.80465399999997,2.10150718688965,-0.66132116317749,-1.09313869476318,-0.8662076872222275,-0.48213043991400306,-0.03472141769467551
260,403.81298699999996,2.45872330665588,-0.66657203435898,-1.13181626796722,-0.8675507136753621,-0.4832113032438316,-0.03244444727897653
261,403.82131999999996,2.50928592681885,-0.65960502624512,-1.06731963157654,-0.8656140736171173,-0.4843077367665816,-0.030502077876305097
262,403.829653,2.64101982116699,-0.72246223688126,-1.07234001159668,-0.8639724887147244,-0.48362658948314385,-0.03288623021573469
263,403.837986,2.76481342315674,-0.74610424041748,-0.97482657432556,-0.8641831728876856,-0.4824724489328816,-0.031081161328724488
264,403.846319,3.03522300720215,-0.75750261545181,-0.80390274524689,-0.8647870044319,-0.48321329817479997,-0.031247275824449996
265,403.854652,3.21559810638428,-0.79208171367645,-0.67485821247101,-0.8612349568581092,-0.4856892994471959,-0.0326064381064204
266,403.862985,3.53067922592163,-0.62251555919647,-0.63628321886063,-0.8616479562253367,-0.48229202932241017,-0.02909504029215612
267,403.871318,3.6932008266449,-0.76828610897064,-0.49225434660912,-0.861873918650102,-0.48545448147520714,-0.029757828736791836
268,403.87965099999997,3.68838596343994,-0.55553430318832,-0.62644731998444,-0.8604947888121316,-0.48528067919672746,-0.03185572976968776
269,403.88798399999996,3.65472841262817,-0.79469442367554,-0.64191830158234,-0.8637585931894733,-0.48345137615593053,-0.03233082136329388
270,403.89631699999995,3.65060472488403,-0.60153746604919,-0.56848233938217,-0.8646733420235764,-0.48680320078012856,-0.030671175645322447
271,403.90465,3.42443132400513,-0.43245795369148,-0.81209933757782,-0.8627964525806662,-0.4880742637478571,-0.030453287217081633
272,403.912983,3.42035889625549,-0.55912035703659,-0.75546634197235,-0.8692639214651928,-0.48247867701004993,-0.02849943783818469
273,403.921316,3.5644383430481,-0.42782172560692,-0.72211647033691,-0.8647325087566764,-0.4906333222681163,-0.02912044221041122
274,403.929649,3.71963477134705,-0.36345311999321,-0.74429833889008,-0.8691452960578764,-0.4848537639695775,-0.030877553686804077
275,403.937982,4.06517171859741,-0.37782275676727,-0.72951906919479,-0.8685380585339603,-0.48547253316762445,-0.028969335312745915
276,403.94631499999997,4.35912084579468,-0.33894041180611,-0.69401770830154,-0.8669311173108162,-0.48488135240515917,-0.031569539284219385
277,403.95464799999996,4.4846043586731,-0.24829159677029,-0.65262514352798,-0.8703125739584163,-0.4885801977040816,-0.03266767579682041
278,403.96298099999996,4.63073396682739,-0.27523776888847,-0.6118985414505,-0.8652178122072804,-0.48659013242137655,-0.03182183114849796
279,403.971314,4.57858324050903,-0.16089582443237,-0.45129722356796,-0.8643845149448938,-0.49042721183932547,-0.030973079253216323
280,403.979647,4.59674406051636,-0.35325875878334,-0.36500290036201,-0.8665594762685347,-0.49051260461612645,-0.0272238193726051
281,403.98798,4.79312801361084,-0.31883323192596,-0.30127462744713,-0.8651936784082531,-0.4919437972866755,-0.03048961259880816
282,403.996313,4.55033016204834,-0.38192105293274,-0.18206599354744,-0.8626266401641224,-0.4941753951870663,-0.030936246015587754
283,404.004646,4.06125164031982,-0.41099318861961,-0.32448109984398,-0.862304337170659,-0.4946678998518959,-0.029545937265668367
284,404.012979,3.71707344055176,-0.59029281139374,-0.38439279794693,-0.8628449148061326,-0.49184920836468154,-0.027387440204620403
285,404.02131199999997,3.3993034362793,-0.63524580001831,-0.26490241289139,-0.8644901976293449,-0.4948501684227765,-0.028197756227181632
286,404.02964499999996,3.18340086936951,-0.79328560829163,-0.32478848099709,-0.8627695939978774,-0.49217311703428973,-0.027892875428102037
287,404.037978,2.94080853462219,-0.51987934112549,-0.35370698571205,-0.8641686731455275,-0.4939803298638796,-0.025263532083861225
288,404.046311,2.56686663627625,-0.66557317972183,-0.41080114245415,-0.8593524232202643,-0.4948880721111683,-0.024698957496760203
289,404.054644,1.94111049175262,-0.74805092811584,-0.46067199110985,-0.8616875629035795,-0.49292145943155097,-0.024326287057934694
290,404.062977,1.79388010501862,-0.63749986886978,-0.40785545110703,-0.861376061731455,-0.4899784496852326,-0.0270899704524449
291,404.07131,1.8445965051651,-0.7128826379776,-0.32335412502289,-0.8610230076069734,-0.49108252233388466,-0.0284788955231102
292,404.079643,1.8682382106781,-0.69963991641998,-0.2724329829216,-0.8634208173167948,-0.48888143228024894,-0.028984467593990815
293,404.08797599999997,1.55169749259949,-0.58301836252213,-0.27473831176758,-0.8649252872077785,-0.49499662554993873,-0.027681546551840814
294,404.09630899999996,1.28671813011169,-0.73749780654907,-0.36561754345894,-0.8694310090979754,-0.49269802716313565,-0.029484310320445916
295,404.10464199999996,1.26899313926697,-0.690982401371,-0.62006938457489,-0.8725336619785857,-0.4931856174858245,-0.031801687211406124
296,404.112975,0.77819889783859,-0.78347539901733,-0.63241547346115,-0.8704090118408204,-0.4999304304317551,-0.028425251342812242
297,404.121308,0.54810619354248,-0.85711628198624,-0.70195811986923,-0.8732314985625601,-0.4971488641232856,-0.028898214199105102
298,404.129641,0.04665632918477,-0.82535469532013,-0.72349965572357,-0.8709411231838928,-0.5013609905632174,-0.02848802172407857
299,404.137974,-0.14254321157932,-1.02171337604523,-0.68705064058304,-0.8706257294635387,-0.49907285339978263,-0.029821541844581634
300,404.146307,-0.83848190307617,-1.16978919506073,-0.45903262495995,-0.8683127773051357,-0.5007865477581418,-0.030925809120644895
301,404.15464,-1.6255818605423,-1.25157558917999,-0.45900711417198,-0.8664412401160418,-0.5013592389165142,-0.029138530395469382
302,404.16297299999997,-2.27090668678284,-1.46945023536682,-0.0759462043643,-0.8641194324104152,-0.5009652643787622,-0.028020265151042854
303,404.17130599999996,-3.08456873893738,-1.62392973899841,-0.01839102245867,-0.862811438891352,-0.4993468887951908,-0.027860430430392855
304,404.179639,-3.76782822608948,-1.67446649074554,0.06545716524124,-0.8624336670856081,-0.4961585025398102,-0.028406180897537752
305,404.187972,-4.35582876205444,-1.70389723777771,0.14027634263039,-0.8614041853924183,-0.4925220353262765,-0.030137191013414284
306,404.196305,-4.85691976547241,-2.04607772827148,0.19199149310589,-0.8616376409725265,-0.49090628721276125,-0.029494744174334692
307,404.204638,-5.05320167541504,-2.10499048233032,0.162637591362,-0.8609227744900448,-0.4846193839092643,-0.02833578051352959
308,404.212971,-5.25411987304688,-2.19863629341125,0.08208081126213,-0.8635144331017317,-0.47986132758004285,-0.02609937774891734
309,404.221304,-5.27174282073975,-2.32012462615967,0.02841899357736,-0.8627224941642918,-0.47800175997675715,-0.02863208250123673
310,404.22963699999997,-5.07879018783569,-2.31169748306274,-0.103840097785,-0.861633748424297,-0.47608823192362854,-0.025272097210494896
311,404.23796999999996,-4.92067432403564,-2.26589918136597,-0.08655051141977,-0.8667001918870572,-0.47601276514481533,-0.02951555714315306
312,404.24630299999995,-4.695396900177,-2.25877857208252,-0.48869401216507,-0.8676932782542948,-0.4751796625098408,-0.028626106831491836
313,404.254636,-4.35502195358276,-2.19288611412048,-0.39769941568375,-0.8701799353774714,-0.47727137195820707,-0.028326000486101018
314,404.262969,-4.16487503051758,-2.07940220832825,-0.49386808276176,-0.8721318536875204,-0.48007220638041626,-0.027328191363081632
315,404.271302,-3.91454720497131,-1.9026894569397,-0.3573185801506,-0.8724296336271327,-0.4793223069638622,-0.027952933189820405
316,404.279635,-3.82451248168945,-1.81360328197479,-0.44993966817856,-0.8704178673880438,-0.47917769879710914,-0.029307223704396937
317,404.287968,-3.57246828079224,-1.72687327861786,-0.4973515868187,-0.8712662482748224,-0.4796886930660326,-0.031193671177844894
318,404.29630099999997,-3.27490830421448,-1.51563274860382,-0.38621145486832,-0.8718190874372213,-0.48057604809196636,-0.030505763632910198
319,404.30463399999996,-3.0019371509552,-1.36571264266968,-0.18119509518147,-0.8694460927223672,-0.48109453551623266,-0.030254749011020404
320,404.31296699999996,-2.93119025230408,-1.29458177089691,-0.01539415400475,-0.8702165253308356,-0.47886741404630717,-0.0324773332294153
321,404.3213,-2.6269702911377,-1.32575440406799,-0.06928650289774,-0.8705095368988663,-0.4800500675123561,-0.032270365223592855
322,404.329633,-2.50581502914429,-1.09394562244415,0.01771224476397,-0.8732883297667214,-0.48020868885273876,-0.02851603286606939
323,404.337966,-2.44113898277283,-1.09986233711243,0.05536516755819,-0.8704086225859968,-0.4800269555072397,-0.030016540264596936
324,404.346299,-2.44231748580933,-1.11930370330811,-0.00648040184751,-0.8709977597606429,-0.4804341647089745,-0.031016012843774487
325,404.354632,-2.63314342498779,-1.19653058052063,-0.14172357320786,-0.8689485277448378,-0.4803544161271071,-0.03112138229973469
326,404.362965,-2.37036681175232,-1.24245691299438,-0.25985640287399,-0.8686125035188632,-0.48134054456438363,-0.031420837859718366
327,404.37129799999997,-2.39544343948364,-1.1958646774292,-0.20901216566563,-0.870495815666354,-0.4800802834179938,-0.03086926985760102
328,404.37963099999996,-2.34831309318542,-1.16387236118317,-0.30706343054771,-0.869029006179498,-0.47938711789189586,-0.028881269450090816
329,404.38796399999995,-2.3526930809021,-1.22229850292206,-0.31341579556465,-0.8708252225603377,-0.4811211994716102,-0.02800971877818163
330,404.396297,-2.64949798583984,-1.28837049007416,-0.28320378065109,-0.8695565437784,-0.4807036263602122,-0.0270496764961551
331,404.40463,-2.60079288482666,-1.30577528476715,-0.35298979282379,-0.8693889695770888,-0.4780543580347173,-0.026720151001092856
332,404.412963,-2.93746590614319,-1.50236463546753,-0.04853897541761,-0.8662878737157704,-0.48262420965700714,-0.02392773421443265
333,404.421296,-3.21973466873169,-1.55471992492676,-0.17330591380596,-0.8662755148751398,-0.48141800627416526,-0.026649586400207138
334,404.429629,-3.35123801231384,-1.43750905990601,-0.19433517754078,-0.8650519896526724,-0.47854783583660504,-0.028761485401465305
335,404.43796199999997,-3.46401786804199,-1.50303041934967,-0.3528873026371,-0.867344213991749,-0.4760423971682183,-0.02756512590817041
336,404.44629499999996,-3.56829333305359,-1.53830111026764,-0.47411945462227,-0.8661323664139724,-0.4751889073118867,-0.0309156550436602
337,404.45462799999996,-3.49821257591248,-1.80094945430756,-0.50380635261536,-0.8702440651095643,-0.4763423180093571,-0.02999623819273367
338,404.462961,-3.265456199646,-1.67510676383972,-0.50534325838089,-0.8707833776668622,-0.4749176453570928,-0.02754170067456326
339,404.471294,-2.9534752368927,-1.6572539806366,-0.63566851615906,-0.8736250351886355,-0.47533200711620105,-0.02698822897307755
340,404.479627,-3.06597280502319,-1.79203605651855,-0.68264502286911,-0.8741480963570734,-0.4777105000554296,-0.02651571619267347
341,404.48796,-2.93897747993469,-1.68402087688446,-0.79311919212341,-0.8724354724494774,-0.4764924244004857,-0.02984734518187347
342,404.496293,-2.95857214927673,-1.78199505805969,-0.92864418029785,-0.8720277280223612,-0.48214858892012646,-0.028604189960324485
343,404.504626,-2.90872669219971,-1.6916024684906,-0.94939160346985,-0.8718877909134847,-0.4781748810592959,-0.0303731250519653
344,404.51295899999997,-2.80099391937256,-1.54836773872375,-1.11378383636475,-0.8690551835663469,-0.47830737366968257,-0.03327206081273571
345,404.52129199999996,-2.53119874000549,-1.49995696544647,-1.0343029499054,-0.8698185122742947,-0.47844560778870915,-0.02996222705257143
346,404.529625,-2.17600607872009,-1.35485208034515,-0.93141037225723,-0.8692984678307356,-0.47858213891788365,-0.031402655402008164
347,404.537958,-2.06391835212708,-1.23820495605469,-1.12331247329712,-0.8672429104240571,-0.4829990620515785,-0.03107189523930408
348,404.546291,-1.78882122039795,-1.25062787532806,-0.78884154558182,-0.8678280577367663,-0.47981194087437246,-0.02809364576728979
349,404.554624,-2.0073618888855,-1.31217885017395,-0.78097802400589,-0.8703792338468592,-0.4867899174592928,-0.03009487171562347
350,404.562957,-1.81640768051147,-1.0773731470108,-0.66212791204453,-0.8673319524648234,-0.47463110515049484,-0.03179386866335918
351,404.57129,-1.70580554008484,-1.05332136154175,-0.48897570371628,-0.8682951635243938,-0.4823365503427939,-0.030339080460217344
352,404.57962299999997,-1.56372332572937,-1.19030630588531,-0.64665699005127,-0.8691470477045794,-0.48112329171628365,-0.031028009799062242
353,404.58795599999996,-1.22881734371185,-0.93442016839981,-0.43492975831032,-0.8657494369818245,-0.4745152045269398,-0.028216504320806118
354,404.59628899999996,-1.69586718082428,-1.19906616210938,-0.41226109862328,-0.8718220068483937,-0.487887324119101,-0.02801965694038265
355,404.604622,-1.226358294487,-1.01812744140625,-0.33229345083237,-0.8725490375440949,-0.4716081035380459,-0.025170693288043878
356,404.612955,-0.92656928300858,-0.8505077958107,-0.3267607986927,-0.870773159727758,-0.47726397611656934,-0.028424548859498976
357,404.621288,-0.72034907341003,-0.85970330238342,-0.30393850803375,-0.8747028817935867,-0.47676032903243054,-0.02722094557723265
358,404.629621,-0.2139300853014,-0.63560444116592,-0.23780253529549,-0.8751278507466212,-0.4758019836581479,-0.026661115033285714
359,404.637954,-0.43541637063026,-0.71344608068466,-0.24925212562084,-0.8758911794545704,-0.4805433020299795,-0.02429120090542959
360,404.646287,-0.43116444349289,-0.48688822984695,-0.22315123677254,-0.8787983291003174,-0.4729576013526142,-0.024977273174694895
361,404.65461999999997,-0.26958981156349,-0.42118763923645,-0.21270060539246,-0.873621142640406,-0.472356299964749,-0.02787348263117755
362,404.66295299999996,0.42093151807785,-0.14396479725838,-0.17517574131489,-0.8757014177283458,-0.46792516903001424,-0.024651047222468365
363,404.671286,1.2288556098938,0.0151380142197,-0.06808263808489,-0.874434295965701,-0.46913453510829384,-0.021115483678117348
364,404.679619,0.89405202865601,-0.01427993457764,-0.07115634530783,-0.8777159087511959,-0.4808469694487898,-0.018081365495312245
365,404.687952,0.53739947080612,0.14848570525646,-0.25952342152596,-0.8777348849238182,-0.46463917712776015,-0.017325937443849998
366,404.696285,0.83107942342758,0.28143641352654,-0.30277305841446,-0.8756620056775153,-0.46061024373891424,-0.014579410151559185
367,404.704618,1.68799102306366,0.40342423319817,-0.22189615666866,-0.8794193851704499,-0.46186855861118875,-0.016817155541206122
368,404.712951,1.8100426197052,0.68702501058578,-0.23257724940777,-0.8770209915783939,-0.4675746450618826,-0.019141896342744897
369,404.72128399999997,2.04764032363892,0.76519960165024,-0.44663539528847,-0.8758013589041571,-0.46329225812639485,-0.018797702327066325
370,404.72961699999996,2.30811142921448,0.88924944400787,-0.65464860200882,-0.8762196132114959,-0.45967418320325,-0.016472829239709184
371,404.73794999999996,2.77600693702698,0.99631685018539,-0.83763682842255,-0.8741581196687662,-0.46103837538738673,-0.01181451033572755
372,404.746283,3.13655304908752,1.09347188472748,-0.95876657962799,-0.8782056886322642,-0.45922055536386935,-0.016687396837740814
373,404.754616,3.70257592201233,1.38941860198975,-0.9897084236145,-0.8758661698321908,-0.45500351458179694,-0.015492807237469389
374,404.762949,4.30932664871216,1.78462076187134,-0.94424325227737,-0.8745073785587234,-0.45903960052801623,-0.011944103301787754
375,404.771282,4.94012832641602,1.77214658260345,-1.12277448177338,-0.8744028636387418,-0.4603104688683336,-0.014767438477398977
376,404.779615,5.54931163787842,1.89609384536743,-1.22169661521912,-0.8723477928005918,-0.46214634058426834,-0.017948918500725507
377,404.787948,6.11374616622925,2.09649968147278,-1.35296940803528,-0.8733135340165121,-0.461270273948202,-0.019113409275911222
378,404.79628099999996,6.75437211990356,2.26282572746277,-1.38120913505554,-0.8729164940970285,-0.4616631780351908,-0.01966139187618163
379,404.80461399999996,7.08004379272461,2.37641191482544,-1.60496234893799,-0.8758070030990908,-0.46470189581111937,-0.017425493926418366
380,404.812947,7.34991645812988,2.54815578460693,-1.73605608940125,-0.8772233067726601,-0.46823117197776326,-0.02039458830745816
381,404.82128,7.57073545455933,2.54585003852844,-2.12979817390442,-0.8763230576807142,-0.47341045068234794,-0.02096766263854796
382,404.829613,7.55918312072754,2.57243752479553,-2.3273606300354,-0.8786459358371029,-0.4771375169559398,-0.020450029750259183
383,404.837946,7.37155866622925,2.64615535736084,-2.62054085731506,-0.8765767545116194,-0.4788655164290448,-0.020410175226172448
384,404.846279,7.33649301528931,2.62174510955811,-2.82786273956299,-0.8771774720172488,-0.48375484894733056,-0.02317716728667857
385,404.854612,6.98102045059204,2.77893996238708,-2.82435417175293,-0.8761049776661152,-0.4867214572672938,-0.022989405053002038
386,404.86294499999997,6.68791580200195,2.57466650009155,-2.76226496696472,-0.8726249422345845,-0.4869500958189673,-0.023346195111469386
387,404.87127799999996,6.34122657775879,2.446697473526,-2.72256278991699,-0.87213574623575,-0.4892828026596377,-0.02035241498022653
388,404.87961099999995,5.87842893600464,2.58936858177185,-2.47676825523376,-0.8690479823521203,-0.49030951091221425,-0.0206351827602
389,404.887944,5.7069673538208,2.4773576259613,-2.35527992248535,-0.8654400767112265,-0.49131724299216734,-0.01885144838265
390,404.896277,5.10272693634033,2.29582929611206,-2.06153607368469,-0.8641480426399071,-0.4902895129456816,-0.01876682499233571
391,404.90461,4.77573537826538,2.20758843421936,-1.77760243415833,-0.8643040365102336,-0.4885846254776938,-0.01807609230888163
392,404.912943,4.58683061599731,1.99596357345581,-1.58967065811157,-0.8617027438416774,-0.4855229903240592,-0.018948959756870404
393,404.921276,4.11217355728149,2.01934957504272,-1.61930644512177,-0.8617042035472632,-0.4857879755448326,-0.019572948922916323
394,404.92960899999997,3.84990954399109,1.91061699390411,-1.62396812438965,-0.8617782592773439,-0.4841174398149765,-0.022500218177328567
395,404.93794199999996,3.78274869918823,1.8313410282135,-1.7488888502121,-0.8628903603067203,-0.4801942377674336,-0.01891828313165816
396,404.94627499999996,3.43736624717712,1.65480756759644,-1.71425819396973,-0.8625572554919184,-0.4793937838807398,-0.01983036040043367
397,404.954608,3.20996284484863,1.79509663581848,-1.87964928150177,-0.8644051454505143,-0.48331864026128063,-0.019460854177572446
398,404.962941,3.02989506721497,1.53403651714325,-1.96822345256805,-0.8695031185539397,-0.4840040206909183,-0.022356709351344897
399,404.971274,2.5696325302124,1.60299003124237,-2.17336773872375,-0.8705154730349172,-0.4843443753767989,-0.021330661007335713
400,404.979607,2.35109210014343,1.57340562343597,-2.39052534103394,-0.8719890944811763,-0.48404737394683267,-0.02351376627172755
401,404.98794,2.09666609764099,1.51505672931671,-2.45924878120422,-0.8759017866484968,-0.4815400863180357,-0.02428026679827245
402,404.996273,1.94674611091614,1.46454524993896,-2.56921029090881,-0.8740109813456632,-0.48223004049184387,-0.0225062242576051
403,405.00460599999997,1.79736387729645,1.48321807384491,-2.61408662796021,-0.8769040205040755,-0.4837786908052408,-0.02045897348802959
404,405.01293899999996,1.92292451858521,0.99688041210175,-2.66008925437927,-0.8772748830367111,-0.4795911360760122,-0.021401999556288773
405,405.02127199999995,1.69301116466522,0.73433446884155,-2.76569676399231,-0.8787177533519509,-0.48295653596216326,-0.022763244959772447
406,405.029605,1.55912566184998,0.32058775424957,-2.7777099609375,-0.8787373134068082,-0.48509169598014995,-0.023167911840944896
407,405.037938,1.66609084606171,0.01344747468829,-3.04676246643066,-0.8850802207479673,-0.48246378801306933,-0.023373517454886736
408,405.046271,1.87371981143951,-0.10372485220432,-3.10544466972351,-0.8869492277807122,-0.48264201806516016,-0.022624826857021427
409,405.054604,2.04397749900818,-0.63160854578018,-3.33507585525513,-0.8869894183411887,-0.48930927198760404,-0.02087422323470204
410,405.062937,2.0921835899353,-0.65412354469299,-3.59667444229126,-0.8862139254200213,-0.48744848796299484,-0.024014531957860203
411,405.07126999999997,1.78885960578918,-0.91316032409668,-3.98739361763,-0.8834968294416152,-0.48901017831296323,-0.023937572021873466
412,405.07960299999996,1.30108785629272,-0.9716888666153,-4.17496681213379,-0.885108636350048,-0.4926146779741561,-0.025194802758644896
413,405.08793599999996,0.57082605361938,-1.37201368808746,-4.25357675552368,-0.8812036319654816,-0.49850906644548665,-0.028627599988665306
414,405.096269,-0.16359812021255,-1.66427218914032,-4.41863489151001,-0.877968729758749,-0.4939827140496704,-0.02532169983095102
415,405.104602,-1.06178677082062,-2.04910039901733,-4.78010272979736,-0.8705841765111806,-0.49251249858311225,-0.023555202143532652
416,405.112935,-2.20635890960693,-2.23649430274963,-4.84424114227295,-0.8649423171062857,-0.4970607465627244,-0.020327604546838775
417,405.121268,-3.25410938262939,-2.88630175590515,-4.98870515823364,-0.8633308021389704,-0.493152238884751,-0.020573061643814283
418,405.129601,-4.23418712615967,-3.03845024108887,-5.05970811843872,-0.858077419047453,-0.4889597211565285,-0.01938142946788265
419,405.137934,-5.24077558517456,-3.23647427558899,-5.21856832504272,-0.854608088123555,-0.48966694851310916,-0.02052683611305408
420,405.14626699999997,-6.29749059677124,-3.6204309463501,-5.35206890106201,-0.8600694306042734,-0.4862895303842969,-0.018397984760147958
421,405.15459999999996,-7.05054807662964,-3.69781160354614,-5.57473278045654,-0.8627948955613733,-0.4877464138731663,-0.02098174423587551
422,405.162933,-7.72878837585449,-3.80508422851562,-5.77823877334595,-0.8651900778011398,-0.48760754721505306,-0.01841453417223367
423,405.171266,-8.45336437225342,-3.55890583992004,-6.02375030517578,-0.8710690907069613,-0.48813308988298665,-0.02199004499279694
424,405.179599,-8.74213981628418,-3.28877854347229,-6.21678066253662,-0.8766359212447183,-0.48816486280791627,-0.02312185052706224
425,405.187932,-8.82261943817139,-3.11055493354797,-6.32961130142212,-0.8770973828374122,-0.48688095443102747,-0.020133859040785716
426,405.196265,-8.80041122436523,-2.76022839546204,-6.39577198028564,-0.8803376372979611,-0.4858241762433735,-0.01868989242582857
427,405.204598,-8.48102760314941,-2.29563784599304,-6.48729276657104,-0.8799062456403459,-0.4855308727342255,-0.02076028104947551
428,405.21293099999997,-8.21594715118408,-1.72953748703003,-6.17587423324585,-0.8740581784929551,-0.48785817866422654,-0.01984082922643571
429,405.22126399999996,-7.42882013320923,-1.3714759349823,-5.74711751937866,-0.8712914525246132,-0.48160051812931015,-0.02252578127140918
430,405.22959699999996,-6.37735509872437,-0.8377006649971,-5.10673522949219,-0.8640481987778019,-0.48015618810848265,-0.02239082844889898
431,405.23793,-5.6060848236084,-0.41399005055428,-4.33187913894653,-0.8598980611684367,-0.48271106213939385,-0.02252347311195102
432,405.246263,-4.36289882659912,0.1837053000927,-3.77266955375671,-0.8586403788352499,-0.472772218743149,-0.02394617972325306
433,405.254596,-3.01743364334106,0.58456802368164,-2.77986192703247,-0.8538523498846561,-0.4738220876576949,-0.030392119470908162
434,405.262929,-2.08230900764465,0.82856929302216,-2.1806423664093,-0.8577644581697428,-0.47286899722352344,-0.02639419570261122
435,405.271262,-1.3456951379776,0.76356029510498,-1.52665972709656,-0.8606791982845388,-0.47209953775211216,-0.027653325577171428
436,405.279595,-0.95589756965637,0.97152227163315,-0.90935653448105,-0.8623234106569877,-0.47140593431433875,-0.028894564935138776
437,405.28792799999997,-0.35895788669586,0.92951488494873,-0.59179121255875,-0.8708461450070754,-0.4691097201133265,-0.02866902217573061
438,405.29626099999996,-0.02569107711315,0.82575166225433,-0.2745845913887,-0.8775392843752489,-0.4703264333763898,-0.029161703221652038
439,405.304594,0.09837148338556,0.82836443185806,-0.17812141776085,-0.8830380926326825,-0.4692002218596785,-0.030501749442547955
440,405.312927,0.68242716789246,0.91599059104919,0.00477705476806,-0.890628172426807,-0.4659580697818673,-0.030575482820977547
441,405.32126,0.95429676771164,0.78722786903381,0.15759156644344,-0.8965701473002531,-0.4670419498365755,-0.03389717668903163
442,405.329593,1.40812969207764,0.74250537157059,0.21752887964249,-0.901972031106754,-0.4632487588999224,-0.036603580324017344
443,405.337926,1.95919454097748,0.67644643783569,0.23202657699585,-0.901979718889509,-0.4608692441667826,-0.03620272692368979
444,405.346259,2.47383570671082,0.70490378141403,0.28673860430717,-0.9042099543980193,-0.4589424327928193,-0.037566104105540815
445,405.35459199999997,2.64545106887817,0.59860473871231,0.22680126130581,-0.8990444455827988,-0.45370539840386837,-0.03841673841281837
446,405.36292499999996,2.66782522201538,0.31673285365105,0.09979306161404,-0.8949633033908143,-0.4519528272200602,-0.0358070250676602
447,405.37125799999995,2.54765582084656,-0.15267366170883,-0.00573758874089,-0.8890769919570611,-0.4506864839670612,-0.036194607311365305
448,405.379591,2.11047196388245,-0.58081549406052,-0.42217379808426,-0.8836571051149948,-0.44936014681446323,-0.039705679732926526
449,405.387924,1.36256206035614,-1.46781098842621,-0.81878465414047,-0.8784296074692082,-0.44974949895119176,-0.03611758655431326
450,405.396257,0.33537995815277,-2.53167247772217,-1.33060824871063,-0.8776067227733376,-0.44622362876425,-0.03487344603149285
451,405.40459,-1.33719110488892,-3.36441683769226,-2.00851440429688,-0.8709604886113377,-0.4435421009452979,-0.030405913688698976
452,405.412923,-3.16451096534729,-4.47233533859253,-2.64057183265686,-0.8679262472658744,-0.44363795494546726,-0.029853792214880614
453,405.42125599999997,-4.87095737457275,-5.43002653121948,-3.44713878631592,-0.867785531647351,-0.44122715385592753,-0.03015667200088469
454,405.42958899999996,-6.67865657806396,-6.38692331314087,-4.39932250976562,-0.867801588408801,-0.44319911878936125,-0.026693839807899997
455,405.43792199999996,-8.15101337432861,-7.14561557769775,-5.44369125366211,-0.8689731481123938,-0.4424870744043469,-0.027338461000091834
456,405.446255,-9.45293426513672,-7.69117450714111,-6.52894067764282,-0.8683149182066621,-0.44013870005704897,-0.02270815932020816
457,405.454588,-10.58142185211182,-8.13097190856934,-7.4330472946167,-0.8697723855777661,-0.43495908075449385,-0.02075797897212347
458,405.462921,-11.25968647003174,-8.21263027191162,-8.44701290130615,-0.8709425828894785,-0.4351592063903806,-0.014259952063463265
459,405.471254,-11.545823097229,-7.92382907867432,-9.34353637695312,-0.8683586120605468,-0.43349995905039285,-0.01519775664319796
460,405.479587,-11.61836433410645,-7.6955041885376,-10.23911476135254,-0.8693066421820194,-0.43024885411165203,-0.01728259939320204
461,405.48792,-11.00871849060059,-7.2252516746521,-10.89150810241699,-0.8662948803025846,-0.42885707349193364,-0.016897589880592857
462,405.49625299999997,-10.07769298553467,-6.51348400115967,-11.40387058258057,-0.8677314252269509,-0.42795784619389793,-0.015579203561860202
463,405.50458599999996,-9.06598091125488,-5.8685941696167,-11.64956092834473,-0.8669573920113702,-0.428186192804453,-0.019048555773131633
464,405.51291899999995,-7.79393911361694,-5.29745960235596,-11.80845832824707,-0.8697277185868245,-0.42749220011185607,-0.019210469053716327
465,405.521252,-6.59402656555176,-4.73885202407837,-11.99898910522461,-0.8731703855553448,-0.433319198841951,-0.025538020596212244
466,405.529585,-5.83535957336426,-4.40466356277466,-12.07465744018555,-0.8753931279085122,-0.43696208876006426,-0.02851456707837653
467,405.537918,-5.3275580406189,-4.37295246124268,-12.21830177307129,-0.8825294338926978,-0.4443491721639827,-0.02732359633153775
468,405.546251,-5.1196460723877,-4.50179243087769,-12.3808479309082,-0.8893946238926478,-0.44682624388714176,-0.02714389440964694
469,405.554584,-5.29858684539795,-4.82243061065674,-12.49798011779785,-0.8939624319271163,-0.44945867694154074,-0.025366071839721425
470,405.56291699999997,-5.65454864501953,-5.25170087814331,-12.6864013671875,-0.8961489735817418,-0.4532713306193449,-0.026651201199512243
471,405.57124999999996,-6.22564315795898,-5.62728214263916,-12.72195243835449,-0.8971000204280929,-0.45218409324178876,-0.028276960460507143
472,405.57958299999996,-6.72530078887939,-6.126145362854,-12.85681056976318,-0.8997777043556684,-0.4523577008928571,-0.028601492546042852
473,405.587916,-6.96891784667969,-6.60162210464478,-12.78127479553223,-0.896279373947455,-0.4484151334178693,-0.02772423077602755
474,405.596249,-6.93341588973999,-6.8851203918457,-12.68642520904541,-0.8936232936625581,-0.44464237835942444,-0.03146736293422959
475,405.604582,-6.62053823471069,-6.96216821670532,-12.44987773895264,-0.8880492619105743,-0.4428569637999244,-0.03296237514943469
476,405.612915,-6.09516429901123,-6.9929051399231,-12.21532821655273,-0.8823264375024908,-0.4375113273153499,-0.03061540272771122
477,405.621248,-5.64817142486572,-6.91204166412354,-11.84451198577881,-0.8810746913053551,-0.4366919945697398,-0.02989545464515714
478,405.629581,-5.19466972351074,-6.99218702316284,-11.51762008666992,-0.8769218289122285,-0.4326601417697204,-0.029084670300386733
479,405.63791399999997,-4.84675264358521,-6.9678807258606,-11.22541618347168,-0.8763934154899754,-0.43099276873530196,-0.028386748566919386
480,405.64624699999996,-4.73205137252808,-6.96180963516235,-10.89534950256348,-0.8718742643083846,-0.43285554769087853,-0.02992413481887551
481,405.65458,-4.87538909912109,-7.36336469650269,-10.87427043914795,-0.8731013901379643,-0.4302351328791408,-0.024901686274275508
482,405.662913,-5.27584171295166,-7.46935653686523,-10.92303943634033,-0.8729670972240213,-0.4298860199597418,-0.026246701576271427
483,405.671246,-6.15279674530029,-7.86857938766479,-11.00641345977783,-0.8752987336139285,-0.4360022350233428,-0.025942444193120407
484,405.679579,-7.22019386291504,-8.32996940612793,-11.15413093566895,-0.8802188172632336,-0.4371536021329918,-0.025494025678051018
485,405.687912,-8.06433582305908,-8.73690319061279,-11.53470706939697,-0.886445337412308,-0.433240569367701,-0.025026644675098977
486,405.696245,-8.86923885345459,-8.99058628082275,-11.67689228057861,-0.8859309371636835,-0.4323242635143051,-0.02235849140858163
487,405.70457799999997,-9.42258358001709,-9.49198532104492,-11.74095439910889,-0.8885499409266876,-0.4282222475324357,-0.021633732379698976
488,405.71291099999996,-9.80920505523682,-9.52523231506348,-11.78203964233398,-0.8905292043880539,-0.4276984565112051,-0.022365677417540815
489,405.72124399999996,-9.77355003356934,-9.57705020904541,-11.73641967773438,-0.8893230983189173,-0.4280875653636694,-0.022447898375744898
490,405.729577,-9.44005107879639,-9.38581275939941,-11.60219955444336,-0.8931153161185131,-0.42776837640879073,-0.023586570608372447
491,405.73791,-8.98196601867676,-9.10769367218018,-11.21401596069336,-0.8905130503128988,-0.4253922189985,-0.019591430924376527
492,405.746243,-8.50103282928467,-8.66720581054688,-10.80224227905273,-0.8932086399623326,-0.4244396151328571,-0.020400533566669387
493,405.754576,-7.75109958648682,-8.23601531982422,-10.3624963760376,-0.8916007256021307,-0.42427067853966527,-0.021556246341490816
494,405.762909,-7.10838603973389,-7.70375156402588,-9.99808120727539,-0.8941917030178775,-0.42376041412353466,-0.019415807054967347
495,405.771242,-6.35074234008789,-7.17663431167603,-9.34709548950195,-0.8942116523275571,-0.4263781528083643,-0.015954870958717345
496,405.77957499999997,-5.64683818817139,-6.91918659210205,-8.81918716430664,-0.8941965687031651,-0.42655910764421734,-0.014341967750568367
497,405.78790799999996,-4.91350173950195,-6.42388439178467,-8.18269824981689,-0.8941173553466795,-0.4238818129714653,-0.011867070380522447
498,405.796241,-4.51100015640259,-6.0977635383606,-7.52233839035034,-0.8975029964836275,-0.42766984628171323,-0.004954064759064286
499,405.804574,-4.31238746643066,-5.83027362823486,-7.01783990859985,-0.8948957676790192,-0.4302245256852132,-0.005216768809727551
500,405.812907,-4.13821125030518,-5.71544647216797,-6.44282627105713,-0.8954752707967949,-0.42945710980162344,-0.0030271872421918367
501,405.82124,-4.00511884689331,-5.34931564331055,-5.68451595306396,-0.8957423969190949,-0.4341237399042867,-0.0005952869446908163
502,405.829573,-4.25747013092041,-5.15364789962769,-5.18373250961304,-0.8947117474614357,-0.4356429528216928,-0.0017699489027867344
503,405.837906,-4.35360145568848,-4.76318550109863,-4.47498655319214,-0.8954408217449581,-0.4343102416213673,-0.0002881060164346939
504,405.84623899999997,-4.21369600296021,-4.28145837783813,-3.74856662750244,-0.8957385043708643,-0.43403664413763565,0.003558846608716326
505,405.85457199999996,-3.67338895797729,-3.55029964447021,-2.85252928733826,-0.8961265914294184,-0.42858717392901935,0.002094738337458163
506,405.86290499999996,-3.21689200401306,-2.88302278518677,-1.84934782981873,-0.8931400337997744,-0.4335302236128826,-0.00033502771081938773
507,405.871238,-2.39121675491333,-2.11364841461182,-0.86970573663712,-0.8918719389000713,-0.43017835033183155,0.0027188827872887756
508,405.879571,-1.31193554401398,-1.08636379241943,0.09424757957458,-0.8877947865700234,-0.42644335299122044,0.00292015014862551
509,405.887904,-0.21772100031376,-0.07303898781538,1.15944111347198,-0.887220441078653,-0.4283808688728173,0.008295838321958163
510,405.896237,0.45830264687538,0.60577666759491,2.16664409637451,-0.8853285653250561,-0.4351517132350377,0.00729654516492551
511,405.90457,0.84131240844727,1.2029983997345,3.03560733795166,-0.8863520135684887,-0.43417891677544995,0.013235851514095918
512,405.912903,1.83324921131134,2.09370756149292,3.89242911338806,-0.8886356743014592,-0.4286936351231163,0.011900344825520407
513,405.92123599999996,3.19508099555969,2.94112873077393,4.96927642822266,-0.8931341949774295,-0.4316398562217245,0.015827399127337754
514,405.92956899999996,3.76525497436523,3.96482801437378,6.00227403640747,-0.8966899404720388,-0.44263109868886524,0.023143188077576527
515,405.937902,4.35999155044556,4.51740407943726,6.90947866439819,-0.8981879876584419,-0.4467286868971225,0.02438759317203469
516,405.946235,6.06961297988892,6.0386848449707,7.88479089736938,-0.9063326582616694,-0.44544453523596933,0.034298449754715306
517,405.954568,6.54593658447266,7.3997483253479,9.05121421813965,-0.9061014408967929,-0.4598231704867612,0.04372007688697551
518,405.962901,9.18966007232666,9.25665378570557,10.31484222412109,-0.9019069282376039,-0.45352001579440404,0.05588169608797346
519,405.971234,10.03954029083252,10.95311069488525,11.52342414855957,-0.8972044380343693,-0.4586857192370357,0.07037693748668775
520,405.979567,10.38530826568604,12.29609298706055,12.26449680328369,-0.8957061962205539,-0.4702177826239142,0.06951152670140204
521,405.98789999999997,10.25347232818604,13.07617664337158,12.60606479644775,-0.8966379749531651,-0.45080919655001933,0.06804314194893367
522,405.99623299999996,10.38387489318848,13.29292297363281,13.2152738571167,-0.8940075854865867,-0.4382869175502235,0.05902438747639591
523,406.00456599999995,11.33713531494141,12.96618843078613,13.35077285766602,-0.9010327592188,-0.4313452389775489,0.04677356201775204
524,406.012899,12.91755867004395,12.61773014068604,13.33781051635742,-0.9040809164241866,-0.41991754454009383,0.029444487727418367
525,406.021232,15.16390419006348,12.48525619506836,13.46583366394043,-0.9040781916404255,-0.4142490698366744,0.019001626238530613
526,406.029565,16.95152282714844,12.18682289123535,13.37103462219238,-0.9087130488181602,-0.4207480683618663,0.005052141008936734
527,406.037898,17.50699615478516,12.67920780181885,13.27262687683105,-0.9193051591211439,-0.43403533040260817,0.012135070045383672
528,406.046231,16.51592445373535,13.52736949920654,13.04155731201172,-0.9207769316069938,-0.43707468071762345,0.020939523772317344
529,406.05456399999997,15.03795719146729,14.34766674041748,12.92759990692139,-0.9256687942816284,-0.42903360055417444,0.0299315701942051
530,406.06289699999996,15.73789310455322,15.30479431152344,13.07670211791992,-0.9305632844263193,-0.4028834858719183,0.03235686190274285
531,406.07122999999996,18.0306282043457,17.05291938781738,13.89292812347412,-0.9324826026449398,-0.37925343124233973,0.03646384392465816
532,406.079563,22.36889457702637,19.08669471740723,15.26723670959473,-0.9398394214863682,-0.3850275399733561,0.03839283269278877
533,406.087896,30.20663833618164,20.94637489318848,16.58432960510254,-0.9416579227058254,-0.3817794760879204,0.04228326739097143
534,406.096229,37.14189529418945,21.86880683898926,16.90315818786621,-0.9329973921483876,-0.386151391632703,0.03074785276335102
535,406.104562,40.01534271240234,22.42059707641602,17.09603691101074,-0.929082851020657,-0.4083808587521918,0.01626401531453061
536,406.112895,41.10274887084961,22.23102569580078,16.96325492858887,-0.9247644580140407,-0.40662449233386017,0.008657418799643877
537,406.121228,41.03171920776367,21.66136360168457,16.71807479858398,-0.9111677870458489,-0.410819929473254,-0.007126636194939796
538,406.12956099999997,41.02337646484375,21.23906326293945,16.12592506408691,-0.9082989790001693,-0.42272270942220913,-0.02108429767647551
539,406.13789399999996,41.43991088867188,21.28749847412109,15.39409923553467,-0.896499108295051,-0.4203172605864857,-0.02070372506063775
540,406.14622699999995,38.42663955688477,19.1262092590332,13.50598907470703,-0.8701034468047468,-0.4234204000356245,-0.02047943217413775
541,406.15456,34.26552963256836,16.36836433410645,11.08133602142334,-0.8564077104840959,-0.417147461248904,-0.02800907407488163
542,406.162893,31.79484558105469,14.18738174438477,9.10964965820312,-0.8489042398880938,-0.39976647921970915,-0.03641620582463775
543,406.171226,30.41612434387207,12.26548957824707,7.30161237716675,-0.8296234753667091,-0.39318481270147854,-0.04839014642092653
544,406.179559,29.18556213378906,10.33960437774658,5.48901987075806,-0.8138503833692897,-0.391667789342452,-0.042521591697420404
545,406.187892,26.98196029663086,7.99863815307617,3.42118000984192,-0.8019783058945009,-0.4030536145580061,-0.05012712308338673
546,406.19622499999997,24.10927200317383,5.77119731903076,1.02547931671143,-0.7966292634302254,-0.40209110902280204,-0.05840497965715408
547,406.20455799999996,21.15497207641602,3.6497483253479,-1.42243599891663,-0.7884408989731142,-0.39540490325616323,-0.05744467584454285
548,406.21289099999996,18.64774322509766,2.34936380386353,-3.67669343948364,-0.7859348764224928,-0.396428448813302,-0.060032222952161214
549,406.221224,15.93547821044922,1.08043444156647,-6.17234134674072,-0.7846626456902949,-0.3989505281253734,-0.053705530507223466
550,406.229557,13.51201152801514,-0.26906478404999,-8.68793964385986,-0.7840624147531938,-0.3967339408640959,-0.05318501774145611
551,406.23789,13.01350593566895,-1.24742615222931,-10.72824096679688,-0.7881858884071816,-0.37414319661198875,-0.05686766639047755
552,406.246223,15.74029731750488,-1.09317743778229,-12.18410682678223,-0.7981058042876571,-0.362531944197051,-0.0486245508096653
553,406.254556,20.70484161376953,-0.44819813966751,-13.75747585296631,-0.7985817656225092,-0.3663819663378653,-0.041157271789044894
554,406.262889,25.77048683166504,0.24169608950615,-15.18766307830811,-0.8020508532621418,-0.3708420724284887,-0.028848386540705102
555,406.27122199999997,31.04091453552246,1.46751809120178,-16.3575267791748,-0.8084637778145928,-0.379443046998004,-0.018242840864220407
556,406.27955499999996,35.69657897949219,3.38782072067261,-17.09675788879395,-0.8033964098716264,-0.39039859966355916,-0.015179250313311222
557,406.287888,43.73376846313477,5.57879161834717,-18.47660827636719,-0.8120448248726979,-0.3775608539581296,-0.019261514653965306
558,406.296221,47.59480667114258,5.37372541427612,-19.37227058410645,-0.786445724720857,-0.3885832611395387,-0.012222935958784693
559,406.304554,50.57527542114258,5.81434392929077,-20.67099952697754,-0.7870865354732591,-0.4060242613967582,-0.007199724109805102
560,406.312887,52.78779983520508,6.27975797653198,-21.87503242492676,-0.7886770793369836,-0.40957197851064286,0.0033864401737040816
561,406.32122,52.80699157714844,6.09052038192749,-23.70089721679688,-0.7800796567177285,-0.43015227025868974,0.008382306871365305
562,406.329553,49.37818908691406,4.66503047943115,-25.83453369140625,-0.7686289475888621,-0.4535605956097041,0.002272619808815306
563,406.33788599999997,43.79137420654297,3.62196445465088,-28.14253044128418,-0.7673855703704213,-0.45586167549600404,0.006143233301687754
564,406.34621899999996,36.31058883666992,1.69538390636444,-30.36655426025391,-0.7567066075850509,-0.4556822290225908,0.008427574470334693
565,406.35455199999996,28.80934906005859,-0.5161789059639,-32.43567657470703,-0.7618332395748214,-0.45540590675509696,0.007810679321386734
566,406.362885,25.65217208862305,-1.63684177398682,-33.53886795043945,-0.7745695600704275,-0.43056127976398056,0.012969658995161224
567,406.371218,25.33417129516602,-1.84444570541382,-34.73086166381836,-0.7818841447635572,-0.43241564108400915,0.023523337987004077
568,406.379551,23.12020301818848,-2.72739553451538,-36.6391487121582,-0.7879655215204979,-0.46886444091796836,0.03462001985433163
569,406.387884,16.59842109680176,-4.71257829666138,-39.44083404541016,-0.7928760197697856,-0.49116475241524793,0.0318855594615551
570,406.396217,6.6199197769165,-7.45176887512207,-41.86466217041016,-0.7946390035201092,-0.4978033961081989,0.01452343348337653
571,406.40455,-2.02373313903809,-10.11806392669678,-44.40719985961914,-0.8127190628830265,-0.482807548678651,0.008326554480864284
572,406.41288299999997,-11.00943374633789,-13.2978515625,-47.68387222290039,-0.8360698271770866,-0.4876048710881449,0.003720358850395918
573,406.42121599999996,-18.95310974121094,-15.47057819366455,-49.98406600952148,-0.8370783864235387,-0.4756256025664663,0.0025591489915948976
574,406.429549,-25.73030281066895,-17.90141296386719,-52.35390090942383,-0.8476259270492866,-0.4604143512492275,-0.0016816621836346936
575,406.437882,-31.00707244873047,-19.78851699829102,-54.38283538818359,-0.8644225646038448,-0.46923890405771623,-0.015969293154016323
576,406.446215,-33.88231658935547,-21.43486404418945,-55.92312622070312,-0.8756106240408764,-0.4584986822945734,-0.024744927579042855
577,406.454548,-32.31399917602539,-21.75613975524902,-56.61460113525391,-0.8944701175300438,-0.43604291215234897,-0.02680394418385612
578,406.462881,-25.50787925720215,-20.67843627929688,-56.66263580322266,-0.9135049703169847,-0.4167567953771469,-0.023067374618685712
579,406.471214,-15.68851470947266,-19.16170120239258,-55.85558319091797,-0.9333657245246735,-0.410659215888199,-0.015756150289458162
580,406.47954699999997,-5.14281511306763,-16.72190093994141,-54.40460968017578,-0.9542261824315907,-0.4247169105374081,-0.008025638455030612
581,406.48787999999996,4.6235990524292,-14.57065868377686,-53.08718109130859,-0.9665889156108,-0.4326815507849867,-0.0002645306783367347
582,406.49621299999995,13.28277015686035,-12.51503372192383,-51.74803924560547,-0.9786997036058072,-0.442798234978501,0.0004968012930183673
583,406.504546,20.67595672607422,-10.41120338439941,-50.43940353393555,-0.9902431526962591,-0.45102474640826834,0.0030772885953897957
584,406.512879,26.18193435668945,-8.66402721405029,-49.30672454833984,-1.0024494054366133,-0.4706736000216734,0.0012042209962193876
585,406.521212,29.82047653198242,-7.56379079818726,-48.18871307373047,-1.0063195715145195,-0.4884521815241602,0.0008957124106132653
586,406.529545,32.00468063354492,-6.62863779067993,-47.06211853027344,-1.0147730185061081,-0.5130907467433388,0.00047026772280102033
587,406.537878,33.06631851196289,-6.08125925064087,-45.79485321044922,-1.028679244372309,-0.5325299866345459,0.000603820900527551
588,406.54621099999997,33.34376907348633,-6.12167835235596,-44.80247116088867,-1.0394945923162968,-0.5472234317234581,-0.002622714038102041
589,406.55454399999996,32.39106369018555,-6.13963317871094,-43.85488510131836,-1.0496616363525386,-0.5619920029932142,-0.005288483308893877
590,406.56287699999996,30.95440101623535,-6.91541147232056,-42.78050994873047,-1.062847838109853,-0.5695136712521918,-0.008746563475959182
591,406.57121,29.23770713806152,-8.04315853118896,-42.11225891113281,-1.0929928993692202,-0.5782195499965123,-0.016911870666912243
592,406.579543,27.05969429016113,-9.49087619781494,-41.74217224121094,-1.1395275349519693,-0.5950426082221826,-0.023219323888117344
593,406.587876,23.72127723693848,-11.14486694335938,-41.54120254516602,-1.1853422437395367,-0.6209245020029499,-0.01660802534648367
594,406.596209,19.46441078186035,-12.48667049407959,-41.46317672729492,-1.213180386290258,-0.6474866185869489,-0.00416794069567551
595,406.604542,14.35702323913574,-13.75188636779785,-41.40564346313477,-1.221163126887107,-0.6658653823696836,0.01781284809112551
596,406.612875,8.67948818206787,-15.05178165435791,-41.15599822998047,-1.2143987538863203,-0.6730236325945174,0.02966721447146632
597,406.62120799999997,3.40169143676758,-16.0590648651123,-40.35102081298828,-1.2088320206622685,-0.6849711281912663,0.04564558669012449
598,406.62954099999996,-1.38550174236298,-16.32747268676758,-38.80178070068359,-1.2005738822781304,-0.6959147842562928,0.05610626571032448
599,406.63787399999995,-6.07124900817871,-16.63353729248047,-36.15780258178711,-1.1763961947694113,-0.6994023615000203,0.05632340299839897
600,406.646207,-13.244704246521,-17.55485725402832,-33.09381866455078,-1.1526822070686182,-0.717937508407904,0.05330208004737347
601,406.65454,-16.84814262390137,-16.3158130645752,-28.85001182556152,-1.1487823603104572,-0.70628750080965,0.05291674210100714
602,406.662873,-20.28393173217773,-15.07761573791504,-23.40267372131348,-1.1233050482613702,-0.6881512427816582,0.05336490820865204
603,406.671206,-23.15392875671387,-14.12378978729248,-17.16633987426758,-1.0890955827674091,-0.6801387241908479,0.03850890057427551
604,406.679539,-23.68921279907227,-12.26278400421143,-9.63193225860596,-1.0611944782490632,-0.6460795597154265,0.03707907941876633
605,406.68787199999997,-22.74565887451172,-9.91136932373047,-1.24674797058105,-1.0178637991146162,-0.6151392021957703,0.026228242382711223
606,406.69620499999996,-20.19867706298828,-7.74965381622314,7.36408281326294,-0.9692652371464937,-0.5809909956795827,0.014060801085160203
607,406.70453799999996,-16.15377616882324,-5.74464750289917,16.08842277526855,-0.9203131344853611,-0.5401238616631959,0.005249936817860203
608,406.712871,-11.85396957397461,-3.82058334350586,24.84816932678223,-0.8795097896030969,-0.5087907946839623,0.00030762050300816326
609,406.721204,-8.84563064575195,-2.66876316070557,33.12156677246094,-0.849309356845155,-0.5058696805214398,0.006742471334885713
610,406.729537,-7.73110389709473,-1.90789186954498,40.66789627075195,-0.8366261696328918,-0.5158449679004898,0.015658935417934693
611,406.73787,-8.46418952941895,-1.05383574962616,47.60247039794922,-0.8317321660567306,-0.5294525866605796,0.021362481068591836
612,406.746203,-10.6615161895752,-0.63591343164444,53.27202224731445,-0.8303313352623766,-0.5313670391939123,0.018394981720009182
613,406.754536,-12.93786716461182,0.19607758522034,58.20175170898438,-0.8392467304151886,-0.5196605896463203,0.01587528811425612
614,406.76286899999997,-15.44359397888184,1.13445842266083,62.19166564941406,-0.8476412053010898,-0.5164364892609264,0.010343798417218367
615,406.77120199999996,-19.49934959411621,1.21729576587677,64.9014663696289,-0.862854548863002,-0.5258691554166836,-3.1352119178571424e-05
616,406.779535,-24.41802978515625,1.07252407073975,66.52352905273438,-0.8855140452482265,-0.5286943669221836,-0.010077736663575509
617,406.787868,-30.3253231048584,1.24014449119568,67.16407775878906,-0.9019921750438458,-0.5293672911974846,-0.012669757920868366
618,406.796201,-36.69808578491211,0.88310641050339,66.98246765136719,-0.9150963413472081,-0.5313919028457326,-0.02024091019922347
619,406.804534,-42.94427108764648,0.79783660173416,66.26651000976562,-0.9288605865167111,-0.5263397158408653,-0.024938616825610202
620,406.812867,-48.57036209106445,0.80454790592194,65.28649139404297,-0.9347345391098337,-0.5174791569612459,-0.030439337905572444
621,406.8212,-53.46891403198242,0.769302546978,63.92377471923828,-0.9352083595431581,-0.5044469054864377,-0.03902597694980816
622,406.82953299999997,-57.46183013916016,0.91192376613617,62.86671447753906,-0.9318823717078387,-0.4901758991942112,-0.04849092388639693
623,406.83786599999996,-60.55328750610352,1.06581521034241,61.74908447265625,-0.9211800049762336,-0.4727813175746377,-0.05778341877217245
624,406.84619899999996,-62.32719802856445,1.19573163986206,60.67987442016602,-0.9073666163853235,-0.4561947316539531,-0.06622759055118163
625,406.854532,-62.89727401733398,1.56455361843109,59.95401382446289,-0.8952346140024611,-0.44008109034324183,-0.07233825265144796
626,406.862865,-62.49954986572266,2.04028940200806,59.57391357421875,-0.8789825439453123,-0.4255745848830867,-0.08019544032155204
627,406.871198,-61.59353256225586,2.49617433547974,59.16922760009766,-0.860895818593551,-0.42044950991260716,-0.08537371547854693
628,406.879531,-60.63837051391602,2.68989586830139,58.94333267211914,-0.8471864583540939,-0.41529188350755303,-0.08718748481906223
629,406.887864,-59.38425445556641,3.11514568328857,58.77679824829102,-0.836566321703852,-0.41002020543935297,-0.08720750103191428
630,406.896197,-57.85714721679688,3.88759803771973,58.97430038452148,-0.8260408712893113,-0.40215025142747546,-0.08887331096493468
631,406.90452999999997,-57.02446365356445,3.83360242843628,59.05922698974609,-0.8100046916883815,-0.401995182037353,-0.09128340044800101
632,406.91286299999996,-56.87351608276367,3.82791686058044,58.96597290039062,-0.8066868295474927,-0.4044334255919163,-0.09372912499369387
633,406.921196,-56.99050521850586,4.24983692169189,58.99806976318359,-0.8047091231054193,-0.40729036136549385,-0.09609629305041531
634,406.929529,-57.46471786499023,4.59885835647583,58.89957046508789,-0.7961176366222152,-0.40200223728102036,-0.09297833150746837
635,406.937862,-58.76918029785156,4.57215595245361,58.75054931640625,-0.7899609390570194,-0.40426490258197345,-0.09525786249005101
636,406.946195,-60.32342529296875,4.68355321884155,58.44086074829102,-0.7918429374694826,-0.40432655081457036,-0.0992627046546153
637,406.954528,-61.56152725219727,5.04927682876587,58.20318603515625,-0.7967139263542325,-0.4006836122396041,-0.1016907363521806
638,406.962861,-62.34335327148438,5.52661371231079,57.79772567749023,-0.7937636180799836,-0.3935019580685367,-0.10391364292222653
639,406.97119399999997,-62.32338714599609,6.09448528289795,57.55986785888672,-0.7997662193921142,-0.3862609911938102,-0.11090521909752651
640,406.97952699999996,-61.88179397583008,6.63079833984375,57.26265716552734,-0.8051117585629836,-0.37997805342382346,-0.1138140352404847
641,406.98785999999996,-61.17116928100586,7.25107669830322,57.00715255737305,-0.8075579818414184,-0.3760493531519051,-0.11637423719678572
642,406.996193,-59.79430389404297,7.91443634033203,56.66596221923828,-0.8128838636437244,-0.36996758714014183,-0.1195241358815408
643,407.004526,-57.86413955688477,8.65338230133057,56.43708038330078,-0.8177135428603816,-0.3661547388349265,-0.12138454281553979
644,407.012859,-55.80760955810547,9.3972749710083,55.86074447631836,-0.8258100431792591,-0.3636258232350255,-0.12251458605941429
645,407.021192,-53.42107772827148,10.22323417663574,55.24775695800781,-0.8350944519042968,-0.36062289257438773,-0.1229905473942663
646,407.029525,-50.81405639648438,11.11868190765381,54.3688850402832,-0.8443181368769427,-0.35949461314142955,-0.12737056430505203
647,407.03785799999997,-47.86392974853516,11.71631240844727,53.57917022705078,-0.8559498494985152,-0.3604478738745867,-0.13132234008944796
648,407.04619099999996,-44.72853469848633,12.57666873931885,52.31216049194336,-0.8707955418800815,-0.3610324373050612,-0.13511931409641223
649,407.05452399999996,-41.24968338012695,13.51146030426025,50.92512893676758,-0.8823609838680346,-0.35998166823873673,-0.13994345859605406
650,407.062857,-37.50083923339844,14.47596454620361,49.31405258178711,-0.8947958265032092,-0.35927801716084384,-0.1394299098423551
651,407.07119,-33.50394058227539,15.36472415924072,47.57307815551758,-0.9040116290656887,-0.35836095712622856,-0.1416358534170653
652,407.079523,-29.33227157592773,16.23659896850586,45.69772338867188,-0.9141816898268093,-0.35573051900279795,-0.1419452380160898
653,407.087856,-24.8176441192627,16.99180793762207,43.68825149536133,-0.9166295187813898,-0.3550100813106612,-0.14277032443455304
654,407.096189,-20.28528785705566,18.00720405578613,41.52497482299805,-0.9167455167186499,-0.3547300124654969,-0.1381094480047418
655,407.104522,-15.83472442626953,18.65972137451172,39.35789489746094,-0.9136398471131613,-0.3563254706713622,-0.1341989818884398
656,407.11285499999997,-11.40867614746094,19.20960807800293,37.04758071899414,-0.9149851117815286,-0.3564625856827714,-0.13169282553147346
657,407.12118799999996,-7.55203533172607,19.68695068359375,34.80614471435547,-0.919881840141452,-0.358996172340549,-0.13039910063451632
658,407.12952099999995,-3.95402312278748,20.09139633178711,32.51875686645508,-0.930618850552306,-0.36144241994741017,-0.13270402441219387
659,407.137854,-0.74903786182404,20.3873405456543,30.03642654418945,-0.9501120508933549,-0.37311592880560407,-0.13361216807851936
660,407.146187,1.51240694522858,20.55411148071289,27.28617095947266,-0.9735655298038408,-0.3795304103773469,-0.13763019016810815
661,407.15452,3.46252226829529,20.50892448425293,24.39123725891113,-1.0030372775330836,-0.38915271661719486,-0.13778861688107857
662,407.162853,5.48522806167603,20.59385871887207,21.10518455505371,-1.0380673895076826,-0.39638694451779694,-0.1392827471908255
663,407.171186,7.36833667755127,20.82241439819336,17.75737571716309,-1.0679972901636243,-0.40283546155812755,-0.1369977605586153
664,407.17951899999997,9.69185543060303,20.88642501831055,14.31830215454102,-1.0966392439238877,-0.4078461442674908,-0.13575757036403774
665,407.18785199999996,12.35683917999268,21.0498161315918,10.93560791015625,-1.1210853226330815,-0.4113443530335714,-0.13847211185766733
666,407.19618499999996,15.68640899658203,21.42047882080078,7.47379016876221,-1.1342466120817225,-0.4092930774299469,-0.1389756251354602
667,407.204518,19.46313285827637,21.52406692504883,4.14936828613281,-1.137680910071548,-0.40724917333953264,-0.13985930656900203
668,407.212851,23.57368659973145,21.5856761932373,1.14097452163696,-1.1261362932166274,-0.3999335181956387,-0.14182481230521732
669,407.221184,28.16883850097656,21.43025207519531,-1.79253733158112,-1.1079890387398856,-0.39054213737954896,-0.13694752235801835
670,407.229517,32.59088897705078,20.8923282623291,-4.40201663970947,-1.0851847395604968,-0.390488906782501,-0.13397297080682244
671,407.23785,36.58815765380859,20.04222297668457,-7.01188230514526,-1.0687248074278541,-0.39279460906982444,-0.12829313472825613
672,407.246183,40.22010040283203,18.80559539794922,-9.43386745452881,-1.0753916720954733,-0.39760360912400816,-0.12910477969111223
673,407.25451599999997,42.64234161376953,17.21510696411133,-12.15723133087158,-1.0925585883004325,-0.4115087158825928,-0.13633173339220916
674,407.26284899999996,43.7443733215332,15.37366962432861,-15.37682056427002,-1.115905411389409,-0.42604699426767756,-0.1361265961004765
675,407.27118199999995,43.57094573974609,13.05055809020996,-19.02657699584961,-1.1425752055888274,-0.4462867853592856,-0.13601922259038773
676,407.279515,42.27114868164062,10.48108673095703,-23.07675933837891,-1.1763440346231264,-0.4652752195085796,-0.12658658076305818
677,407.287848,40.47212982177734,7.84926795959473,-27.54998779296875,-1.2130607877458846,-0.48349361030422955,-0.12255252624044592
678,407.296181,38.06922912597656,5.52840948104858,-32.00115966796875,-1.227539607456752,-0.4957578133563602,-0.10564960995498979
679,407.304514,35.2784538269043,3.1338062286377,-36.31704330444336,-1.2123123480349172,-0.5088549244160551,-0.08528640075605713
680,407.312847,32.09336853027344,0.85444176197052,-40.05033493041992,-1.1577932202086152,-0.5066908622274591,-0.06443452470156633
681,407.32117999999997,29.07011604309082,-1.64652538299561,-42.73891448974609,-1.0733138298501774,-0.4895658395728285,-0.04002668723768163
682,407.32951299999996,26.88579940795898,-3.7092444896698,-44.05048751831055,-0.9804296493530275,-0.47147609749618874,-0.014431610399363264
683,407.33784599999996,25.8309268951416,-5.49630260467529,-43.77203750610352,-0.8849585786157724,-0.4560018558891449,0.012209151624416326
684,407.346179,25.28464508056641,-7.25818014144897,-41.92572402954102,-0.8010113482572592,-0.4353221581906684,0.036368947856280615
685,407.354512,25.24711799621582,-8.83010196685791,-38.93317413330078,-0.7475638389587397,-0.42045612724459897,0.04479837052676122
686,407.362845,24.88541221618652,-10.3411111831665,-35.47272872924805,-0.7103118117974724,-0.40438489038117037,0.05016118896250816
687,407.371178,23.70871162414551,-11.86679935455322,-31.26414680480957,-0.6968445194010836,-0.3968486737231816,0.04856563952504388
688,407.379511,22.8438663482666,-12.76145076751709,-26.74467468261719,-0.7119499420633122,-0.40086434811961935,0.04070123847649999
689,407.387844,22.78208923339844,-12.60992431640625,-22.06620788574219,-0.7384108523933255,-0.3896510844327969,0.04119319271068163
690,407.39617699999997,22.82505226135254,-12.22741317749023,-17.37950325012207,-0.7688890184674948,-0.395433878412052,0.03544489644011632
691,407.40450999999996,23.02886962890625,-11.52827262878418,-13.14477634429932,-0.8009176838154694,-0.4074778848764847,0.035484433174133675
692,407.412843,22.73586082458496,-10.33743858337402,-9.71517848968506,-0.8379322168778398,-0.41953218226530103,0.032246334820377545
693,407.421176,21.84922409057617,-9.27490711212158,-6.99507236480713,-0.8679331565389825,-0.4308344879928897,0.030947811141306122
694,407.429509,20.49947738647461,-8.00651454925537,-4.9872989654541,-0.8892517673725978,-0.43680740862476636,0.02284710048412755
695,407.437842,19.60202980041504,-6.6258282661438,-3.82538485527039,-0.9005351942412703,-0.43554349821441013,0.019440175015098978
696,407.446175,19.2901496887207,-5.32047557830811,-2.93557167053223,-0.8978765838000234,-0.41821421409139786,0.01960804723963469
697,407.454508,19.406005859375,-4.49323797225952,-2.59689998626709,-0.8851553469288101,-0.4010807494727928,0.01995322351552959
698,407.46284099999997,19.95481491088867,-3.6434850692749,-2.60542941093445,-0.8591448530858876,-0.38581344546103974,0.021854891460769386
699,407.47117399999996,21.04670143127441,-2.99790406227112,-2.57348918914795,-0.8264823835723255,-0.36707445066802347,0.029187895813766324
700,407.47950699999996,22.8926944732666,-2.34407496452332,-2.75127744674683,-0.7850594423255143,-0.35522434176230916,0.03684848851087142
701,407.48784,25.20072174072266,-1.95425224304199,-2.76746606826782,-0.7397209381570622,-0.3449732673411469,0.03961454544748571
702,407.496173,28.23842239379883,-1.55958807468414,-3.04274296760559,-0.6996450618821745,-0.3407619194108612,0.04037211440047449
703,407.504506,31.29226303100586,-1.38110816478729,-3.38423252105713,-0.6622156804921674,-0.3380221006821612,0.04087461196646428
704,407.512839,33.97487258911133,-1.0807296037674,-3.47816014289856,-0.6275237823019224,-0.3309670516422816,0.037275762582312244
705,407.521172,36.66343307495117,-1.21505105495453,-4.36526012420654,-0.6044772206520551,-0.33268174346612445,0.03494397413973877
706,407.529505,38.37746047973633,-1.19225454330444,-5.39095830917358,-0.5874451325864204,-0.3332237808071836,0.027442428530478572
707,407.53783799999997,39.47431945800781,-1.17801320552826,-6.66429567337036,-0.5750387542101806,-0.3313107636510112,0.028525350653394895
708,407.54617099999996,40.75183486938477,-1.4188643693924,-8.12589836120605,-0.5643280671567337,-0.3258235843814153,0.006698374541438774
709,407.554504,43.50030899047852,-0.48804166913033,-9.34780406951904,-0.5782901024331847,-0.3071731937174898,0.004925755973981632
710,407.562837,41.79880142211914,2.17964696884155,-10.91030025482178,-0.5771254520027,-0.34513575690133264,0.04482058542115306
711,407.57117,34.54663848876953,2.81495642662048,-13.86712837219238,-0.5762656854123489,-0.41776696029974486,0.07876468556267857
712,407.579503,30.87590789794922,2.08279800415039,-17.3636531829834,-0.6151287896292551,-0.35668064136894384,0.0777929960464949
713,407.587836,33.86822128295898,5.3388843536377,-18.5057430267334,-0.6353051808415622,-0.2544581890106204,0.07442851455844184
714,407.596169,47.53609466552734,9.40103530883789,-19.70062065124512,-0.6477100021985112,-0.2672529707149581,0.06536032472337959
715,407.60450199999997,71.564208984375,15.37245941162109,-18.76485252380371,-0.7051297596522744,-0.27151854670777653,0.07394293741304081
716,407.61283499999996,94.67035675048828,23.46468734741211,-18.32255935668945,-0.713752921746702,-0.33010293026359694,0.09818117837516632
717,407.62116799999995,106.15555572509766,26.86134910583496,-20.81263542175293,-0.6959067558755683,-0.41112783003826525,0.08352619652845407
718,407.629501,108.39739227294922,27.14330673217773,-24.27104759216309,-0.7164697257839907,-0.4463585542172806,0.05538782294915611
719,407.637834,105.82568359375,27.35279655456543,-27.894287109375,-0.733664619679354,-0.4590362918620204,0.01244450862310408
720,407.646167,101.30084228515624,26.7777099609375,-31.59728240966797,-0.7359865733555387,-0.4581932632290591,-0.016561548928825512
721,407.6545,96.78872680664062,26.30377769470215,-34.84095764160156,-0.7696307435327643,-0.4817446397275337,-0.018691300433509184
722,407.662833,92.42721557617188,26.45235443115234,-39.27212142944336,-0.7918056663201775,-0.5130884598712531,-0.011347119449353061
723,407.67116599999997,81.64423370361328,25.25417709350586,-44.76329040527344,-0.8051812892057459,-0.5529858628097846,0.01023779110032653
724,407.67949899999996,64.2883529663086,21.39227294921875,-50.80584716796875,-0.8254398618425643,-0.5864626047562581,0.011490847991437755
725,407.68783199999996,42.96081924438477,16.51044845581055,-56.98015594482422,-0.8403923073593449,-0.6053346030566154,0.00017932321572142857
726,407.696165,21.65980339050293,11.27384281158447,-63.17918395996094,-0.8609206335885183,-0.5981600041292153,-0.02195820668522143
727,407.704498,4.29482078552246,6.64891958236694,-68.32791900634766,-0.879767865550761,-0.5520792396701112,-0.027065258853289795
728,407.712831,-11.37489891052246,1.39803147315979,-72.65216827392578,-0.8850646505550458,-0.5275606135932766,-0.034483637736768366
729,407.721164,-26.10067176818848,-4.4061222076416,-76.51615142822266,-0.8932692664010183,-0.5405487333025254,-0.032962372108381634
730,407.729497,-37.787841796875,-9.5353364944458,-79.62007141113281,-0.9008872752286947,-0.5442082152074693,-0.03754037375352857
731,407.73783,-45.17586898803711,-13.93997669219971,-81.85330963134766,-0.9139451202081174,-0.525521161604901,-0.03634778212527857
732,407.74616299999997,-48.77337265014648,-17.73837852478027,-83.0617446899414,-0.9303001481659561,-0.5166241100856235,-0.040517479789499995
733,407.75449599999996,-48.20146179199219,-20.50174522399902,-83.66719055175781,-0.9519419378163866,-0.5099552018301826,-0.035831441684644895
734,407.76282899999995,-44.04911041259766,-22.14042091369629,-82.89292907714844,-0.9833174335713285,-0.5064784264077948,-0.025317237085225507
735,407.771162,-38.14380264282227,-22.93289375305176,-81.46446990966797,-1.0160059831580337,-0.5166151085678408,-0.01333521336925306
736,407.779495,-31.99450492858887,-23.45272445678711,-79.4052963256836,-1.0476858761845806,-0.5386456178159132,0.0005712255607459183
737,407.787828,-26.54655265808105,-23.8031120300293,-77.03155517578125,-1.0801036990418724,-0.5656264752757796,0.0095721281000551
738,407.796161,-22.37325286865234,-24.03169441223145,-74.3617935180664,-1.1058704220518776,-0.5863293822930785,0.02190801714147857
739,407.804494,-19.39262771606445,-23.91385841369629,-71.48419189453125,-1.1305464530477713,-0.605241376526502,0.02915174681313163
740,407.81282699999997,-16.88718795776367,-23.35869598388672,-68.21885681152344,-1.1399191253039305,-0.6235527019111479,0.03678519506843673
741,407.82115999999996,-15.01484775543213,-22.32314491271973,-64.57484436035156,-1.1337361043813274,-0.6363526169134642,0.03789316330637245
742,407.82949299999996,-13.1342601776123,-21.4587516784668,-60.34982299804688,-1.1175033024379182,-0.6421538761683877,0.03608731895076939
743,407.837826,-10.80327224731445,-20.34584617614746,-55.70557022094727,-1.103400600199797,-0.6380031546767877,0.021058015373288774
744,407.846159,-8.29762554168701,-19.53363418579102,-51.00217819213867,-1.1033553493266204,-0.6304090363638745,0.010860366176585713
745,407.854492,-5.76603269577026,-19.11792945861816,-45.98423385620117,-1.135970135124362,-0.6320822968774907,-0.0039279707992561225
746,407.862825,-3.83005261421204,-18.40187454223633,-41.22959136962891,-1.186413667639907,-0.6430275099618091,-0.014515838452747957
747,407.871158,-2.811448097229,-17.51443672180176,-36.63906478881836,-1.227885363053302,-0.6613648181058918,-0.006075232308737755
748,407.879491,-3.06323528289795,-16.68460464477539,-32.14994812011719,-1.265225021206603,-0.6940113281717102,0.017810422851115306
749,407.88782399999997,-4.39581632614136,-15.69356060028076,-27.55220603942871,-1.3085504454009387,-0.726403752151801,0.04392201803168469
750,407.89615699999996,-6.2769513130188,-13.80647850036621,-22.93528175354004,-1.322686915494958,-0.751183860156001,0.06764839498364184
751,407.90449,-8.02481555938721,-11.18916130065918,-17.94447135925293,-1.2820143602332283,-0.7570440428597581,0.08847102218744693
752,407.912823,-9.03214454650879,-8.180739402771,-12.24427318572998,-1.2014294643791354,-0.7433637307614693,0.09355518890886938
753,407.921156,-8.2270622253418,-5.43297147750854,-5.96509504318237,-1.1066995348249162,-0.7028454177233633,0.08562401241185713
754,407.929489,-5.26369953155518,-2.68387222290039,1.06379759311676,-1.0223315686595682,-0.6531639488375918,0.0628172074045449
755,407.937822,-1.22223448753357,-0.4272326529026,8.31664752960205,-0.9519175120762418,-0.6037837631848397,0.03352789246306122
756,407.946155,2.55582737922668,1.2571212053299,15.44104480743408,-0.9019847792022082,-0.5675950828863652,0.011208432213384693
757,407.95448799999997,4.57174634933472,2.0700409412384,22.4214973449707,-0.884833919758699,-0.5502693507136133,-0.007603056728839796
758,407.96282099999996,4.67553615570068,2.12465119361877,28.81991577148438,-0.8969998846248703,-0.5553124388869929,-0.014650943327923467
759,407.97115399999996,3.50511980056763,2.56736898422241,34.87870025634766,-0.9364150494945296,-0.5702865853601571,-0.015874105144520406
760,407.979487,2.17310190200806,3.16264533996582,40.01129531860352,-0.9833808821074816,-0.5861657006399968,-0.011848220411612244
761,407.98782,-0.56697207689285,3.45049953460693,44.42021942138672,-1.0188583451874398,-0.5985572386761101,-0.015487304451514285
762,407.996153,-4.13678503036499,3.72723770141602,48.15756225585938,-1.0437777577614296,-0.6098179427944888,-0.00825535810115408
763,408.004486,-10.48925876617432,3.65149736404419,50.75804138183594,-1.0590643785437754,-0.632790837969099,-0.004163708309737755
764,408.012819,-18.35297966003418,3.41538548469543,52.42733764648438,-1.0582436347494315,-0.6401760237557551,-0.004466446686764286
765,408.021152,-26.2407112121582,2.88112378120422,53.48029327392578,-1.037547831632653,-0.6271555472393429,-0.011852972817664285
766,408.02948499999997,-32.77783203125,2.14217734336853,54.04349517822266,-1.0034545587033643,-0.597890153223154,-0.017667318485221427
767,408.03781799999996,-37.62363815307617,1.43786060810089,54.57352447509766,-0.9678195447337866,-0.5722325188773021,-0.025401268990672448
768,408.046151,-41.01208877563477,0.60109168291092,55.22859954833984,-0.932102495310258,-0.540501876753204,-0.033098212918457146
769,408.054484,-43.00797271728516,0.04438966140151,56.28848648071289,-0.8883603738278755,-0.5120720668714877,-0.04059424813912856
770,408.062817,-43.63066482543945,-0.55031150579453,57.38867568969727,-0.8512216684769612,-0.487215324324004,-0.03571304131527347
771,408.07115,-44.22421264648438,-0.72223520278931,59.0826530456543,-0.8081174383358081,-0.4675311944922622,-0.031246053321021428
772,408.079483,-47.67309188842773,-2.0488543510437,58.55221939086914,-0.7673868354485959,-0.4602091166437887,-0.03092757901366837
773,408.087816,-52.56694793701172,-3.34240674972534,58.82649230957031,-0.7519101123420561,-0.4139441373396898,-0.023118925033783672
774,408.09614899999997,-57.51829528808594,-4.27587413787842,59.46494674682617,-0.7208069489926704,-0.35856183694333466,-0.035675742796488774
775,408.10448199999996,-59.19423675537109,-5.25834178924561,62.15509796142578,-0.7110061450880397,-0.35442868057562343,-0.04903085073646224
776,408.11281499999996,-54.10637664794922,-4.11770677566528,66.1203842163086,-0.6991250174386163,-0.3700211096783071,-0.04562031249610714
777,408.121148,-48.19907379150391,-3.12282967567444,68.01775360107422,-0.6656080849316652,-0.40881083936107443,-0.0364175651754653
778,408.129481,-43.71333312988281,-2.53578591346741,69.33341979980469,-0.6644446022656499,-0.40184388355332956,-0.031510704025930605
779,408.137814,-42.66629409790039,-2.56234812736511,70.01176452636719,-0.6556048198622102,-0.4073125245619796,-0.033458462175058164
780,408.146147,-43.10419845581055,-2.35771441459656,69.93939971923828,-0.6539699009486613,-0.42213970301102655,-0.02984436190858163
781,408.15448,-46.72174835205078,-2.71559953689575,69.00746154785156,-0.6615140486736683,-0.4080825192587714,-0.032151177221415306
782,408.16281299999997,-52.4871940612793,-3.19438505172729,68.22710418701172,-0.6675482282833173,-0.39413184535746626,-0.04059697900499592
783,408.17114599999996,-58.56966400146484,-3.64128136634827,67.5860366821289,-0.6837739749830591,-0.3979955887307928,-0.04866805003613877
784,408.17947899999996,-63.78061294555664,-3.61205673217773,66.9900894165039,-0.6952650692998142,-0.4061769466010887,-0.05453435133914592
785,408.187812,-68.04100799560547,-3.12538361549377,66.08023834228516,-0.7042897964010428,-0.4161857098949194,-0.058037304148381624
786,408.196145,-72.54131317138672,-2.77408313751221,64.51575469970703,-0.7190656661987306,-0.4261163789398816,-0.05832673335561939
787,408.204478,-77.13338470458984,-2.34888386726379,62.22309875488281,-0.7377007056255733,-0.42599965114982746,-0.05929877563398673
788,408.212811,-81.03152465820312,-1.30145812034607,59.97530364990234,-0.7555943119282622,-0.41056973593575613,-0.06608033058594694
789,408.221144,-83.19769287109375,-0.00385497743264,57.62055587768555,-0.7743399483816958,-0.3872603786234949,-0.07067089786334897
790,408.229477,-83.5147476196289,1.53469049930573,55.47187042236328,-0.7979397384487856,-0.3687726721471673,-0.07383684722744693
791,408.23780999999997,-82.02313232421875,3.45392942428589,53.50593185424805,-0.815557411738804,-0.3611037925798061,-0.07905253342219795
792,408.24614299999996,-79.42078399658203,5.70233726501465,51.5004997253418,-0.8343333614115815,-0.3560456451104612,-0.08344623507285612
793,408.25447599999995,-75.50874328613281,7.94531154632568,49.41588592529297,-0.8532751822958183,-0.35691480247341834,-0.08370349601823468
794,408.262809,-70.2667007446289,10.5641975402832,47.13303756713867,-0.8731465436974346,-0.35744382410633363,-0.08583265299699692
795,408.271142,-63.83466339111328,13.43537998199463,45.15131378173828,-0.8905398115819816,-0.35389301728229183,-0.08139756869296633
796,408.279475,-57.134765625,16.18883514404297,43.17425918579102,-0.9072601551912265,-0.35363168132548467,-0.07734946450408674
797,408.287808,-49.30747604370117,19.87109184265137,41.85873413085938,-0.9027450911852776,-0.35236786822883465,-0.08439117548417041
798,408.296141,-40.59321594238281,22.71096229553223,40.3741455078125,-0.9219383706851877,-0.3317755582381265,-0.09196923703563468
799,408.30447399999997,-30.9026927947998,26.42205810546875,39.59117889404297,-0.9504409712188101,-0.3301940645490377,-0.1028629225127551
800,408.31280699999996,-20.36679840087891,30.76712417602539,39.4398307800293,-0.9360121707526999,-0.3230607996181561,-0.10352555586367243
801,408.32113999999996,-9.00339794158936,34.34218597412109,39.34946060180664,-0.9319188643474969,-0.31547826163622755,-0.10721625113973775
802,408.329473,2.86474180221558,37.82400131225586,39.48863983154297,-0.9451259885515488,-0.31677606154461324,-0.10709392781160305
803,408.337806,14.59754753112793,41.37522888183594,39.7060546875,-0.9586732241572163,-0.31781172265811836,-0.1119193008967806
804,408.346139,26.10319328308105,44.26368713378906,39.50160980224609,-0.9806844166346959,-0.32563073294503364,-0.11342641042203366
805,408.354472,36.64356231689453,46.63491439819336,39.03550720214844,-1.0189537126190806,-0.3390959087683234,-0.11586127232532142
806,408.362805,45.87124252319336,48.76079177856445,38.29364395141602,-1.0639827105463764,-0.35452494815904284,-0.11908103008659489
807,408.371138,53.51768493652344,50.61179351806641,37.0712776184082,-1.1070698134753174,-0.37518462356256016,-0.12143992647832755
808,408.37947099999997,59.50860595703125,52.26073455810547,35.43449401855469,-1.1392743246895927,-0.396027710973,-0.1317183217223806
809,408.38780399999996,64.43031311035156,53.33882904052734,33.20500946044922,-1.1561460884249937,-0.4032430600146857,-0.14060157902386733
810,408.39613699999995,68.24502563476562,53.81767654418945,30.56929397583008,-1.1630380396940263,-0.41189899249952655,-0.15499443423991324
811,408.40447,71.37956237792969,53.5520133972168,27.42469024658203,-1.1604102776975052,-0.41185422819487855,-0.1586300864511602
812,408.412803,73.1672134399414,52.91615676879883,24.17326927185059,-1.146982446008799,-0.41648329520712135,-0.1575024760499296
813,408.421136,74.74971771240234,51.92786026000977,20.96478652954102,-1.109721417329749,-0.4104370000411051,-0.15573553893030917
814,408.429469,75.67678833007812,50.08747482299805,17.68777465820312,-1.0724217551095143,-0.4099849778778693,-0.15431361539023264
815,408.437802,76.32335662841797,47.04278182983398,14.29934024810791,-1.0567818855752755,-0.4087368322878469,-0.15565581467686837
816,408.44613499999997,76.36203002929688,43.59139633178711,10.46590709686279,-1.0824935290278224,-0.4095001123389418,-0.16615514852562752
817,408.45446799999996,75.3781967163086,39.81538009643555,6.06939554214478,-1.1298045333550897,-0.4235979488917755,-0.17885811474858468
818,408.46280099999996,73.29405975341797,36.26430130004883,0.94057285785675,-1.167552909072564,-0.4380971071671469,-0.19163719245365712
819,408.471134,70.56050872802734,32.37863540649414,-5.28964900970459,-1.1862179697776327,-0.4516811273535908,-0.19606901674854488
820,408.479467,66.5311279296875,27.61811637878418,-12.53932952880859,-1.2005180242110274,-0.46982132658666526,-0.1889220062567265
821,408.4878,60.61769866943359,22.50896072387695,-19.64373779296875,-1.2067341317935867,-0.49751928874424484,-0.17161045755658877
822,408.496133,53.60077285766602,17.6613826751709,-27.28813934326172,-1.1870518509222538,-0.5168471530992153,-0.14565084661756225
823,408.504466,45.38006591796875,12.76578807830811,-34.16669845581055,-1.1139109669899447,-0.5298954126786214,-0.1026651080773806
824,408.512799,35.88331604003906,7.53337097167969,-40.26952362060547,-1.0026520125719969,-0.5243750494353622,-0.06590014817763366
825,408.52113199999997,25.73164939880371,1.77094697952271,-45.02171325683594,-0.8904180721360806,-0.5051362271211581,-0.039574154177490814
826,408.52946499999996,16.00897216796875,-3.8322958946228,-48.07864761352539,-0.7968715745575571,-0.4904397653073683,-0.025903886678267343
827,408.537798,8.07812023162842,-9.30015182495117,-49.52213287353516,-0.7333705376605602,-0.46252284731183774,-0.020697262822365305
828,408.546131,1.02051186561584,-14.41466236114502,-48.94993591308594,-0.6995241982596265,-0.44037570758741734,-0.01887957964624694
829,408.554464,-5.09550285339355,-19.21524429321289,-47.71722793579102,-0.7026091400457887,-0.4263024914021398,-0.022437084390192853
830,408.562797,-11.1156587600708,-23.75304794311523,-45.96235275268555,-0.7311317872027958,-0.4197032111031673,-0.029152814222841834
831,408.57113,-17.77033042907715,-27.73643112182617,-43.93383026123047,-0.7836080570610203,-0.42633455626818567,-0.032534660125265305
832,408.579463,-23.60486030578613,-30.45998001098633,-41.5185546875,-0.8437125536860255,-0.43720512974018977,-0.03625020992999183
833,408.58779599999997,-27.91742324829102,-32.6500129699707,-39.26940536499023,-0.9036004786588704,-0.44223585907293766,-0.035127668964619385
834,408.59612899999996,-30.44053840637207,-33.6582145690918,-37.38222122192383,-0.9584361679699959,-0.4534506311222,-0.03563574686342347
835,408.60446199999996,-32.03802108764648,-33.54971313476562,-35.68224334716797,-0.9873940993328479,-0.4627765927995958,-0.036602321327948974
836,408.612795,-33.33554077148438,-33.12503051757812,-34.59609985351562,-0.9946675203284439,-0.47061136790684277,-0.03727013663369796
837,408.621128,-33.83839797973633,-32.56476211547852,-34.0433349609375,-0.9835939018093806,-0.46572500345658263,-0.0427358764774949
838,408.629461,-33.56619262695312,-31.78688430786133,-33.41191482543945,-0.9533611609011274,-0.4477998675132285,-0.04697662531113163
839,408.637794,-32.00394058227539,-30.62392807006836,-32.87881851196289,-0.9077419553484235,-0.4182741106772908,-0.047067044949044894
840,408.646127,-29.11587333679199,-29.37023735046387,-31.87002563476562,-0.8497812310043642,-0.3898564163519408,-0.038370119065654074
841,408.65446,-24.03334808349609,-27.94760704040527,-30.16287040710449,-0.792415579971002,-0.35782551278873365,-0.023551963421763265
842,408.66279299999997,-17.44070816040039,-26.23504829406738,-28.03023910522461,-0.7365653466205203,-0.33150079298992546,-0.004144587687083673
843,408.67112599999996,-9.67353343963623,-24.35997009277344,-25.36708641052246,-0.6825808116367887,-0.30925295790847446,0.016673170790380613
844,408.679459,-0.83835458755493,-22.40477752685547,-22.5832462310791,-0.6360326981057929,-0.2930101813102255,0.02869101811428469
845,408.687792,8.13048839569092,-20.46026992797852,-19.47656631469727,-0.5918282878642184,-0.2803127133116428,0.03464869394594285
846,408.696125,16.99299621582031,-18.74905776977539,-16.72400665283203,-0.5551775620908153,-0.2704263220028,0.02955439747596224
847,408.704458,24.78209114074707,-17.1065731048584,-14.58514499664307,-0.5345096880075887,-0.28112416364708775,0.02659802838247653
848,408.712791,30.97677993774414,-15.72640323638916,-12.97841453552246,-0.5244027838415031,-0.29248305729457347,0.018683735813413264
849,408.721124,35.30124282836914,-14.54561328887939,-12.16698455810547,-0.5218384217242806,-0.30897792504758265,0.014849344686585714
850,408.72945699999997,37.81879425048828,-13.2964334487915,-11.94813537597656,-0.5307761017157102,-0.3246093526178479,0.00884829355137653
851,408.73778999999996,38.81467819213867,-12.07107162475586,-12.34633445739746,-0.546735549459652,-0.3380194002268265,0.002405467082042857
852,408.74612299999995,38.73981094360352,-11.00106430053711,-13.3377628326416,-0.5635233801238387,-0.34640944733911627,0.007596805083508163
853,408.754456,36.86181640625,-10.45647621154785,-15.12051391601562,-0.5837156821270377,-0.3606740309267632,0.00280382339747551
854,408.762789,33.44763946533203,-10.09134292602539,-17.68916130065918,-0.6107313778935642,-0.3710498371902775,-0.001795732473232653
855,408.771122,29.25642204284668,-10.20514583587646,-20.76858329772949,-0.6376757427137724,-0.3734934573270836,0.0032492453346448977
856,408.779455,26.24433898925781,-10.28462791442871,-24.23770332336426,-0.6731666350851255,-0.3479647393129306,-0.00680096295415102
857,408.787788,26.09787559509277,-9.16989517211914,-27.10240364074707,-0.7002441737116601,-0.32430553922847855,-0.016155545504725508
858,408.79612099999997,34.86561584472656,-6.15561246871948,-28.75846099853516,-0.7648337130643887,-0.2969225328795765,-0.013043945845292856
859,408.80445399999996,53.09230041503906,-0.55548495054245,-29.67913246154785,-0.8137651852199009,-0.3015036972201602,0.006254975284848979
860,408.81278699999996,73.80174255371094,5.84041166305542,-30.99014663696289,-0.8275402808675958,-0.34797281635050914,0.0312076265714602
861,408.82112,89.56134033203125,10.51337146759033,-32.45457458496094,-0.8426049290871132,-0.4061850236386673,0.05040436679003163
862,408.829453,101.24506378173828,14.80940723419189,-34.28772354125977,-0.8721877117546235,-0.45778566477250093,0.0644779387785459
863,408.837786,108.37181091308594,18.50381278991699,-36.75091934204102,-0.8787484071692643,-0.49791083043935297,0.07488683778412449
864,408.846119,108.84538269042967,20.51018142700195,-39.98212432861328,-0.8743094424812162,-0.5300774379652377,0.07613108474381122
865,408.854452,101.38258361816406,19.87750625610352,-43.68563842773438,-0.8726478109554366,-0.5572838685950459,0.06647437202687143
866,408.862785,88.11705017089844,17.82673645019531,-47.79125595092773,-0.8705727908076072,-0.5672486460938744,0.046623981728845916
867,408.87111799999997,72.14073181152344,14.86028099060059,-51.46443176269531,-0.8685538233542929,-0.563158502384108,0.02957816026648673
868,408.87945099999996,55.91902923583984,11.07711410522461,-54.61716842651367,-0.8678073299174407,-0.5534350142187,0.01051539593205204
869,408.88778399999995,43.92749786376953,7.59304189682007,-56.99052429199219,-0.8674859027473295,-0.5252293178013387,0.002004847462687755
870,408.896117,36.00913619995117,4.46035242080688,-58.14329147338867,-0.8721037300265561,-0.5016991070338653,0.0038413726249520407
871,408.90445,30.76408386230469,1.51731646060944,-59.09823989868164,-0.8788787102212714,-0.5019738236252143,0.006035720283279591
872,408.912783,27.53729248046875,-1.5396648645401,-60.21390151977539,-0.8949297301623286,-0.5017465474654214,0.012764799959805102
873,408.921116,23.66201972961426,-5.07838726043701,-60.97000503540039,-0.9211353379852917,-0.5176130119635132,0.022130047484320407
874,408.929449,21.08942031860352,-8.12895107269287,-61.28256988525391,-0.9627937784000317,-0.5153209822518489,0.033019020849344896
875,408.93778199999997,21.32499313354492,-9.61009979248047,-61.25019454956055,-1.0121444779999398,-0.5242985608626387,0.06161995688263265
876,408.94611499999996,21.14812850952148,-10.52676010131836,-61.16480255126953,-1.045334387798699,-0.5901147394764183,0.0936484823421551
877,408.95444799999996,10.26961898803711,-14.55120944976807,-63.24934005737305,-1.044820571432308,-0.7157214807004346,0.11561798806093163
878,408.962781,-10.86814022064209,-20.07200050354004,-65.90219116210938,-1.048264503479004,-0.7826739914563234,0.1280250597973255
879,408.971114,-36.38810348510742,-26.11995124816895,-69.09265899658203,-1.0485517735383947,-0.7879610937468856,0.11892739607363366
880,408.979447,-60.06714248657227,-31.6584300994873,-71.67339324951172,-1.0400126904857399,-0.7675691526763295,0.10671969579190611
881,408.98778,-80.23308563232422,-36.30719375610352,-72.66552734375,-1.0296126774379182,-0.7422125096223795,0.09455877907422143
882,408.996113,-95.56073760986328,-39.64646148681641,-72.95072937011719,-1.0124838108919103,-0.7127910244221591,0.08108306904228367
883,409.004446,-105.1057357788086,-41.90123748779297,-71.8652572631836,-0.9972565514700754,-0.6605132745236765,0.06947510096491633
884,409.01277899999997,-108.17326354980467,-43.07230377197266,-68.85148620605469,-1.003878651833048,-0.6157364164079938,0.057806719322593875
885,409.02111199999996,-105.33633422851562,-42.85547256469727,-64.8602066040039,-1.0450939256317764,-0.580080042080003,0.04762460078511938
886,409.029445,-97.98653411865234,-41.62553024291992,-60.1386833190918,-1.1153910111407845,-0.5582340882748968,0.04340529745938877
887,409.037778,-88.20394897460938,-38.74019622802734,-54.89848327636719,-1.1867183568526285,-0.5574064838642979,0.046519381659371424
888,409.046111,-77.64706420898438,-34.86322784423828,-49.38710021972656,-1.2384367962272795,-0.5717732468429877,0.05354357009031326
889,409.054444,-67.34122467041016,-30.666015625,-44.05045318603516,-1.290429562938457,-0.5891326495579305,0.06335303491475612
890,409.062777,-56.9974479675293,-25.8408260345459,-38.29481887817383,-1.3368394423504264,-0.6087267155549959,0.07184182502785509
891,409.07111,-46.57225036621094,-19.83810997009277,-32.57087326049805,-1.3453651934253927,-0.6216516786692091,0.08000392086651836
892,409.07944299999997,-35.84169006347656,-12.87384033203125,-26.29337692260742,-1.3052414874641263,-0.6254817515003438,0.0882609218967204
893,409.08777599999996,-25.24655342102051,-5.84056329727173,-19.38076019287109,-1.2163306255729827,-0.6133402610311703,0.1012261303103704
894,409.09610899999996,-14.51355648040771,0.43432793021202,-12.18091678619385,-1.1132414486943458,-0.589548957591154,0.09666216008517245
895,409.104442,-4.38479900360107,5.53031873703003,-4.93376302719116,-1.0259340247329398,-0.5602935868866591,0.07758748774625815
896,409.112775,3.23345136642456,9.12330436706543,2.04597544670105,-0.9612970936055082,-0.5441666622551122,0.05910133828922244
897,409.121108,6.47939109802246,11.18937587738037,8.57005023956299,-0.9314019339425225,-0.5520500455583847,0.03892707885528061
898,409.129441,7.70011472702026,13.01039505004883,14.843825340271,-0.949859229885802,-0.5614809114105846,0.024639378700937756
899,409.137774,8.37013626098633,14.81997394561768,20.8941764831543,-0.9999899961510479,-0.5686833420578316,0.022343917160618367
900,409.146107,7.67314720153809,16.15009689331055,26.30726432800293,-1.0518821404904735,-0.6000655038016184,0.03478202892809489
901,409.15443999999997,2.89506459236145,16.96378707885742,30.74919128417969,-1.0980670306147358,-0.6544147218976704,0.04300235181438673
902,409.16277299999996,-4.87499713897705,17.64534759521484,34.66973114013672,-1.14135995203135,-0.6945620750894347,0.05361588025579693
903,409.171106,-14.60238075256348,18.39618873596191,37.94443130493164,-1.170540147898149,-0.7148247349018948,0.04660557119213775
904,409.179439,-24.57314682006836,19.12414169311523,40.44741439819336,-1.1827201259379478,-0.7184486486473857,0.029449827817021428
905,409.187772,-33.34427642822266,19.8758602142334,42.71871948242188,-1.1648713325967592,-0.6933000136394888,0.00039074132789183673
906,409.196105,-40.07637786865234,20.55324172973633,44.82797241210938,-1.1290259263953386,-0.6567001829341969,-0.025782861879893874
907,409.204438,-44.18368148803711,20.75212287902832,47.1827507019043,-1.0788746269381775,-0.6090441042063184,-0.04592690844925102
908,409.212771,-45.07840347290039,20.79126358032227,49.64273834228516,-1.0257278169904438,-0.5531215181156081,-0.06390898203363266
909,409.22110399999997,-43.04433822631836,21.22245025634766,52.94718933105469,-0.9667160073105173,-0.5093872790433918,-0.06672401817477448
910,409.22943699999996,-38.7625617980957,21.82460784912109,57.17821884155273,-0.9104373503704458,-0.46832108984188164,-0.06506982506537959
911,409.23776999999995,-33.0247688293457,22.2161750793457,61.73837280273438,-0.8640181288427233,-0.4439167587124571,-0.05535381180899489
912,409.246103,-27.56463050842285,22.7310962677002,66.28662109375,-0.8209671292986183,-0.42820044926234685,-0.04224091464159489
913,409.254436,-22.15714645385742,22.88075256347656,70.61511993408203,-0.7842566529098826,-0.40879896708897145,-0.03260611271371632
914,409.262769,-16.70795440673828,22.87248992919922,75.06456756591797,-0.7518808209166234,-0.3755574566977367,-0.03569586848726122
915,409.271102,-8.37980079650879,23.56319618225098,81.1475830078125,-0.726090985901502,-0.35065867462936734,-0.039468748228890814
916,409.279435,1.02817559242249,24.19440460205078,86.96195220947266,-0.689254390950106,-0.3662047337512581,-0.044695820127214285
917,409.28776799999997,8.86263370513916,24.33245849609375,91.19987487792967,-0.6628750781623683,-0.39172758861463874,-0.04487834110551939
918,409.29610099999996,13.30008602142334,23.69049835205078,93.95755767822266,-0.6416466284771357,-0.3895217788462734,-0.04890062371078775
919,409.30443399999996,14.70038223266602,22.84774017333984,96.01148223876952,-0.6302211235980602,-0.3833089312728571,-0.05662163909600714
920,409.312767,13.94836902618408,21.49980735778809,97.43244934082033,-0.6234677957028755,-0.3867522307804653,-0.0644267943440653
921,409.3211,11.26981353759766,19.86350250244141,98.31687927246094,-0.6165414440388581,-0.3898495800641122,-0.07178946417205204
922,409.329433,7.49623870849609,18.02425575256348,98.5796127319336,-0.6171219202936908,-0.39475423949105404,-0.0751669856966755
923,409.337766,2.01871418952942,15.98250102996826,98.25528717041016,-0.6201974226503958,-0.4015155957669632,-0.0790780843520653
924,409.346099,-4.55939817428589,13.63905429840088,97.421630859375,-0.6294228106128928,-0.40595069223520713,-0.07984905826802143
925,409.354432,-12.3012866973877,11.30547428131104,95.79772186279295,-0.6426377685702581,-0.4061248837685102,-0.08347949811390509
926,409.36276499999997,-21.07822608947754,9.06930541992188,93.4838409423828,-0.6557183849568264,-0.4041887302787938,-0.0859710452507949
927,409.37109799999996,-29.77883529663086,7.03513431549072,90.63349151611328,-0.6728217066550745,-0.3974380541820918,-0.08932944463223877
928,409.37943099999995,-38.14517974853516,5.20003890991211,87.33219146728516,-0.6945671354021347,-0.39176403259744486,-0.09128458037668367
929,409.387764,-45.90095138549805,3.50451683998108,83.54744720458984,-0.7123014878253551,-0.3868451896978888,-0.09520452241508368
930,409.396097,-53.05191802978516,2.22533130645752,79.38897705078125,-0.7321367458421356,-0.3814571487660306,-0.09780109536891123
931,409.40443,-59.03751754760742,0.9304957985878,74.65399932861328,-0.7496906299980316,-0.3779282618542102,-0.09993527616773366
932,409.412763,-62.60757064819336,0.13065923750401,69.3392333984375,-0.7717884803304867,-0.3703233417199581,-0.10331301056608877
933,409.421096,-65.0409927368164,0.12113060802221,64.1633529663086,-0.7916529324589938,-0.36163344675180814,-0.10439818002739694
934,409.42942899999997,-65.46135711669922,0.0898041203618,58.54951095581055,-0.8089733123779296,-0.3568662186058204,-0.10535318024304488
935,409.43776199999996,-64.8254623413086,0.43731454014778,52.74350357055664,-0.8251269982785591,-0.35486707882005303,-0.10064659069995509
936,409.44609499999996,-63.21310043334961,1.16476237773895,47.03791427612305,-0.831196648733956,-0.3530269982863449,-0.10163144189484286
937,409.454428,-60.40010833740234,1.94996953010559,41.3748779296875,-0.839885984148298,-0.34712672233581526,-0.10572281419014488
938,409.462761,-56.34843444824219,3.06685519218445,35.99668121337891,-0.8423152261850785,-0.33916947792987445,-0.10473956867140205
939,409.471094,-51.32506942749023,4.70486354827881,31.7261905670166,-0.8164439882550918,-0.32901087585760613,-0.11109118558922551
940,409.479427,-45.78337478637695,5.60509967803955,27.08188056945801,-0.8269409257538469,-0.3097617139621653,-0.11518981991981939
941,409.48776,-40.4742317199707,7.58059930801392,23.10666084289551,-0.8478096553257529,-0.3263722633828918,-0.12767474262081838
942,409.496093,-34.44208145141602,10.30057525634766,20.21315956115723,-0.827724690340003,-0.31744718551635714,-0.12719745538672653
943,409.50442599999997,-28.0063533782959,12.03501415252686,17.20408821105957,-0.8375890887513449,-0.3110503663822091,-0.1340722794435459
944,409.51275899999996,-20.64580535888672,13.99306774139404,14.35831260681152,-0.8639006711998766,-0.3141787100811398,-0.14783917641153163
945,409.52109199999995,-13.07200145721436,16.1092357635498,11.66302585601807,-0.8909783071401162,-0.31706746743649894,-0.15168893093965508
946,409.529425,-5.42466115951538,17.67388153076172,8.74438285827637,-0.9284433053464305,-0.3272503979352051,-0.1534020292515653
947,409.537758,2.33249711990356,19.16378211975098,5.73355674743652,-0.9761575776703499,-0.3410014084407265,-0.145744693522551
948,409.546091,10.04430770874023,20.71565246582031,2.66942739486694,-1.025077858749701,-0.3555086194252479,-0.14038036064225815
949,409.554424,17.58942031860352,22.26738929748535,-0.38756918907166,-1.0701179504394531,-0.372734191466351,-0.13728607674034285
950,409.562757,24.93119049072266,23.58940315246582,-3.73799180984497,-1.09942660039785,-0.3843763166544388,-0.14042017411212548
951,409.57108999999997,32.00069427490234,24.93449592590332,-6.8647780418396,-1.1153233781152847,-0.3907002234945489,-0.13710937937911633
952,409.57942299999996,38.14347839355469,25.58639144897461,-10.15532207489014,-1.1105157891098336,-0.39537629302667143,-0.14096088555394387
953,409.58775599999996,42.96443557739258,25.79387855529785,-13.45052814483643,-1.0909800626793684,-0.4075903065350592,-0.14529162523697856
954,409.596089,45.69712829589844,24.55194664001465,-16.67562675476074,-1.068806842881806,-0.42040323724552037,-0.13833082452112344
955,409.604422,46.46715545654297,22.87295913696289,-19.81658363342285,-1.0606623669059907,-0.43465770020776834,-0.13815669380888673
956,409.612755,46.36218643188477,20.38729476928711,-23.00656127929688,-1.0887341596642317,-0.44499475128796634,-0.13997710480981937
957,409.621088,45.45085525512695,17.63186264038086,-26.6185131072998,-1.1612899935975365,-0.46172949732566326,-0.1499026527210153
958,409.629421,43.43366622924805,15.28510093688965,-30.39351654052734,-1.2350748996345366,-0.48864588445546625,-0.16770299600095204
959,409.637754,40.99206924438477,12.78947925567627,-34.80553817749023,-1.2944624375323854,-0.5152635671654531,-0.16969930152503773
960,409.64608699999997,38.26637649536133,9.8944730758667,-39.28471374511719,-1.3465832690803365,-0.5325819034965673,-0.17024054819223877
961,409.65441999999996,36.1147346496582,6.82869863510132,-43.89350509643555,-1.399950397257902,-0.54678201675415,-0.16426518255350508
962,409.662753,34.13492202758789,4.06639957427979,-48.21622467041016,-1.4309347892294122,-0.5565427274120102,-0.15740225509721428
963,409.671086,32.96574783325195,1.82473862171173,-51.65383529663086,-1.39735358101981,-0.5562286960835356,-0.1340783737143694
964,409.679419,32.00718688964844,-0.26852777600288,-53.90810775756836,-1.2906460859337632,-0.5462573985664214,-0.11045498507363469
965,409.687752,32.06980895996094,-3.15938568115234,-54.43765640258789,-1.153479109005052,-0.5244849652660132,-0.08120687032232447
966,409.696085,32.75656127929688,-6.66265726089478,-53.13017654418945,-1.0157211459412867,-0.5092367833974408,-0.04981490422268265
967,409.704418,31.57580375671387,-10.01723575592041,-50.27375793457031,-0.8873934648474866,-0.5013198268656825,-0.01966284093808163
968,409.71275099999997,30.37099647521973,-12.90816307067871,-45.23557662963867,-0.7881404915634469,-0.481159978983354,0.016017309865173468
969,409.72108399999996,28.27706718444824,-16.38895988464355,-39.32757568359375,-0.7300538919409928,-0.45735198624279993,0.03996616723586122
970,409.72941699999996,26.30692863464355,-19.7928352355957,-32.76076889038086,-0.717590049821503,-0.44010502951485814,0.053048833292358155
971,409.73775,24.19394874572754,-22.75519561767578,-25.50275039672852,-0.7379195641498173,-0.4294867418250255,0.05835358585630102
972,409.746083,22.01424407958984,-24.75789260864258,-18.22685623168945,-0.7806037396800765,-0.42289237586819384,0.058112704024022445
973,409.754416,20.2066650390625,-25.61398887634277,-11.16123485565186,-0.8366138107922612,-0.42136396680559385,0.05240929370023775
974,409.762749,18.52877616882324,-25.70074272155762,-4.85738515853882,-0.8890395261803448,-0.42932870436687853,0.04299385511145306
975,409.771082,17.03584671020508,-25.25668907165527,0.53125244379044,-0.9323090923075774,-0.4393134798322407,0.026844669969714286
976,409.779415,15.65398597717285,-24.20220565795898,4.80055904388428,-0.9590968307183715,-0.4517371800481061,0.006177006859560203
977,409.78774799999997,13.76067924499512,-22.5961856842041,7.77175998687744,-0.9679534483929071,-0.4628027701864439,-0.015386914720340815
978,409.79608099999996,11.64747714996338,-21.00630950927734,9.60632991790771,-0.9594989309505539,-0.46562511093762443,-0.03365339673295306
979,409.804414,9.56939315795898,-19.61125183105469,10.58225631713867,-0.9375184896040939,-0.4593782522240459,-0.04223170937324081
980,409.812747,7.99291181564331,-17.95972061157227,11.03268146514893,-0.9020191309403398,-0.43962128308354587,-0.0382331104911102
981,409.82108,7.95902490615845,-16.30304336547852,10.9662389755249,-0.8641438581505602,-0.4024157232167765,-0.031047268789641834
982,409.829413,9.29857158660889,-14.70046424865723,10.84595394134521,-0.8193720603475765,-0.3595947246162255,-0.015477997307874488
983,409.837746,11.86814403533936,-13.10643863677979,10.43863773345947,-0.7756920250094662,-0.32931707343276634,0.002048293470728571
984,409.846079,15.13411140441895,-11.62895584106445,10.23725700378418,-0.7248673147084764,-0.3049537843587449,0.012700925676189795
985,409.85441199999997,19.47808456420898,-10.37867546081543,10.08183193206787,-0.6783521418668785,-0.2837142652394816,0.024797828221808163
986,409.86274499999996,23.84377861022949,-9.27641773223877,9.72074890136719,-0.635743676399698,-0.280476005709901,0.030789347935695915
987,409.87107799999995,28.43011856079102,-8.40558624267578,9.08769416809082,-0.6016403315018632,-0.28371134582830915,0.03543966278737857
988,409.879411,32.65492630004883,-7.72001028060913,7.90438175201416,-0.5783290279154877,-0.29535422519761734,0.037240209628124486
989,409.887744,37.85790634155273,-7.20710039138794,6.34592294692993,-0.5549374405218632,-0.29617781541785404,0.018137024373424487
990,409.896077,54.60810089111328,-9.53539943695068,5.07561540603638,-0.5255200424972846,-0.2174911207082316,-0.12496911749547857
991,409.90441,92.44442749023438,1.42613458633423,10.32470226287842,-0.5723954220207367,-0.03932233671752755,-0.10456332138606529
992,409.912743,105.72674560546876,18.2700023651123,14.67243194580078,-0.5515938389058019,-0.28078103552059286,0.1004261690743112
993,409.92107599999997,79.94293212890625,19.40866470336914,11.35689544677734,-0.5438445538890602,-0.8232900074550081,0.2349890981401714
994,409.92940899999996,46.10073471069336,16.68604278564453,3.63142728805542,-0.6114281926836285,-0.8228260157059653,0.2969725034674816
995,409.93774199999996,24.81513023376465,18.27090644836426,-2.04552912712097,-0.6125803383029234,-0.5431780523183398,0.29294658680351426
996,409.946075,28.21456146240234,20.68579864501953,-4.95438814163208,-0.6189975933152805,-0.37631594404882346,0.26348250252859895
997,409.954408,40.64217758178711,23.8044319152832,-6.78491640090942,-0.6240078381129673,-0.3386865586650612,0.24672646911776835
998,409.962741,51.86280059814453,26.94810485839844,-10.18514823913574,-0.6250381469726561,-0.3355074901970061,0.21413929608403467
999,409.971074,58.4157600402832,28.92980575561523,-12.72673892974854,-0.6340675451317611,-0.3661654433425592,0.19892238840764898
1000,409.979407,62.09995269775391,28.38812828063965,-17.60225868225098,-0.6626830295640591,-0.40091220213442447,0.16885988566340204
1001,409.98774,69.75804901123047,27.33163833618164,-23.66619682312012,-0.6990840970253458,-0.3674848955504745,0.12886475543586529
1002,409.99607299999997,77.85340881347656,25.94419288635254,-29.93609428405762,-0.6904117428526582,-0.34216323677374383,0.0777886351760551
1003,410.00440599999996,83.9596939086914,22.20138740539551,-35.82199478149414,-0.6804548477639959,-0.3049778938293459,0.008488704963606122
1004,410.01273899999995,86.56761169433594,20.31410217285156,-40.55005645751953,-0.7304400327254316,-0.33549634777769793,-0.049254693547073465
1005,410.021072,84.1190185546875,19.63234901428223,-45.66982269287109,-0.7773611496905887,-0.43702373699266117,-0.0847104252601153
1006,410.029405,77.377685546875,16.66198539733887,-51.80350494384766,-0.7901392664228163,-0.4860563667453061,-0.10089312280927347
1007,410.037738,68.63645935058594,12.13731670379639,-58.01161193847656,-0.8105087280273438,-0.48629040620764896,-0.11101205738223367
1008,410.046071,57.95035171508789,8.25367832183838,-64.16485595703125,-0.8453990975204775,-0.5146308334506285,-0.10408739654385306
1009,410.054404,43.51381683349609,4.997802734375,-70.45939636230469,-0.8862209320068357,-0.5852303213002734,-0.08115130419633775
1010,410.06273699999997,28.24299621582031,2.93476819992065,-76.28147888183594,-0.9147533105344182,-0.610716002328055,-0.05469440805668775
1011,410.07106999999996,14.50810432434082,1.10241758823395,-80.99699401855469,-0.9291503867324519,-0.5788933500951653,-0.034532550038123465
1012,410.07940299999996,0.90514886379242,-1.21036994457245,-84.2956771850586,-0.9397008467693714,-0.5593465299022439,-0.029048427027098978
1013,410.087736,-13.69646072387695,-4.51639699935913,-87.64916229248047,-0.9295519030823999,-0.5480402829695724,-0.0316440602954551
1014,410.096069,-27.1642894744873,-8.09950256347656,-89.944580078125,-0.9241714282911652,-0.5310586034035194,-0.04850134557607244
1015,410.104402,-37.37671661376953,-11.57741451263428,-90.98055267333984,-0.9245722634451735,-0.4942381625272786,-0.061801246234348975
1016,410.112735,-41.75024795532227,-14.17119216918945,-91.07283782958984,-0.9409844145482897,-0.4695343971252438,-0.07430625813347959
1017,410.121068,-41.20716857910156,-15.98814964294434,-90.82473754882812,-0.9650745197218294,-0.472345352172852,-0.06996721029281633
1018,410.129401,-39.17939376831055,-17.89950180053711,-90.3813934326172,-0.9878073906411927,-0.4993742826033612,-0.04918008130423877
1019,410.13773399999997,-40.00072479248047,-20.33759117126465,-90.1895751953125,-1.008710763892349,-0.5517127562542347,-0.022399264330766326
1020,410.14606699999996,-43.53943634033203,-23.33820724487305,-90.3745574951172,-1.0342209679739816,-0.5959586221344612,0.003509426451459184
1021,410.1544,-47.65785598754883,-26.58206367492676,-90.16907501220705,-1.053110239457111,-0.610833459970902,0.023709216288158162
1022,410.162733,-50.59151840209961,-29.02294921875,-89.6717300415039,-1.0633166955441846,-0.6146618298121856,0.04261140008361938
1023,410.171066,-51.95680618286133,-30.46172904968262,-88.1275863647461,-1.068220917059451,-0.6274929338571978,0.061091890140455095
1024,410.179399,-52.63146209716797,-31.87997627258301,-85.98782348632812,-1.0640970541506396,-0.6411192855056448,0.0630961024031347
1025,410.187732,-53.18853759765625,-33.34096908569336,-83.4166488647461,-1.079534413863202,-0.6557933165102591,0.06055261407579693
1026,410.196065,-53.90773010253906,-34.74996566772461,-80.41376495361328,-1.1248030954477735,-0.6716129244590295,0.05309343338012653
1027,410.20439799999997,-54.87711334228516,-35.71361541748047,-77.51587677001953,-1.1842404579629702,-0.6932229411845305,0.04146519972353571
1028,410.21273099999996,-56.36318588256836,-36.30794906616211,-74.43698120117188,-1.2385356669523275,-0.7121752719489898,0.03033895577703163
1029,410.22106399999996,-58.72974395751953,-36.27883529663086,-70.83080291748047,-1.2844669575593908,-0.7324795820275132,0.029658650865360202
1030,410.229397,-60.79426574707031,-35.77731323242188,-66.61325073242188,-1.3291382303043284,-0.7525160361309439,0.028027892112731632
1031,410.23773,-62.20010375976562,-34.40158081054688,-61.84146881103516,-1.3627120426722938,-0.7622759682791571,0.02701738355111122
1032,410.246063,-62.98380279541016,-32.07062149047852,-56.1528434753418,-1.362473137524663,-0.762699380212901,0.028586007502614284
1033,410.254396,-62.4989013671875,-28.74241256713867,-49.53176498413086,-1.3142302571510784,-0.7567765761394888,0.03848484888368673
1034,410.262729,-60.49853897094727,-24.90395545959473,-41.7215690612793,-1.2233854799854509,-0.729545135887302,0.03551659839493877
1035,410.271062,-56.33291244506836,-20.86002731323242,-33.21796417236328,-1.1126752775542592,-0.6811844572728989,0.02806644962758469
1036,410.27939499999997,-50.10878753662109,-17.24692153930664,-24.32188987731934,-1.0128190566082387,-0.622481764579306,0.01406201446542959
1037,410.28772799999996,-42.71236038208008,-13.92383480072021,-14.93348789215088,-0.9289868997067815,-0.5684151941416213,-0.0014477269724010203
1038,410.296061,-35.45705795288086,-11.37356758117676,-5.61057424545288,-0.8835079232040715,-0.5255278275937448,-0.007226112089594898
1039,410.304394,-30.25448989868164,-9.70064544677734,3.08312463760376,-0.8739835388806397,-0.5148565525911295,-0.0010498962840255102
1040,410.312727,-28.47933959960938,-8.40551090240479,10.9611988067627,-0.9016068127690531,-0.5349686194439326,0.017289692650035715
1041,410.32106,-29.61037254333496,-6.8466796875,18.2100887298584,-0.9456843745951744,-0.5729272900795449,0.037017218312438774
1042,410.329393,-31.97962188720703,-4.32557106018066,25.0700798034668,-0.9867876403185786,-0.6045086529790142,0.04940522872671836
1043,410.337726,-34.03303146362305,-1.39417266845703,31.23117446899414,-1.015613225041603,-0.6212415013994489,0.04321968981197857
1044,410.34605899999997,-35.64430999755859,1.68183445930481,36.55519485473633,-1.0376961377202243,-0.633364842862499,0.029255598783492855
1045,410.35439199999996,-37.42147827148438,4.67545652389526,41.08628463745117,-1.0536145190803365,-0.6359190356974704,0.014032811230542858
1046,410.36272499999995,-39.81484985351562,7.38261079788208,44.57610321044922,-1.0527374306503612,-0.6381761297887683,-0.004532327305297959
1047,410.371058,-42.4198112487793,9.81746006011963,47.7359733581543,-1.040624988322355,-0.6195700898462407,-0.017036316650254082
1048,410.379391,-43.78817749023438,11.96204948425293,50.36679077148438,-1.0192252178581396,-0.5865733477534082,-0.03199989090160408
1049,410.387724,-43.17771530151367,13.67642116546631,52.95223999023438,-0.9957543197943245,-0.5485680638527388,-0.041679676089968365
1050,410.396057,-40.74461364746094,15.40987300872803,55.38750457763672,-0.9684085845947265,-0.5113922819799306,-0.040993289071686735
1051,410.40439,-36.72452163696289,17.20362091064453,58.67474746704102,-0.9315521863042091,-0.47978007063573674,-0.040378102234431626
1052,410.41272299999997,-31.46845817565918,18.48226547241211,62.34295654296875,-0.8946186182450274,-0.45394080025809186,-0.03358733289095816
1053,410.42105599999996,-25.45481872558594,19.86907005310059,66.22633361816406,-0.8600045223625337,-0.4387218611580989,-0.02816979070099081
1054,410.42938899999996,-19.15890502929688,21.05990028381348,69.9537353515625,-0.8296512097728499,-0.42184386934552853,-0.019867931093488774
1055,410.437722,-14.29576396942139,22.08885955810547,73.03441619873047,-0.7967917286619847,-0.419581228373002,-0.012778994076106123
1056,410.446055,-10.64885711669922,22.54307174682617,75.33582305908203,-0.7737273586039642,-0.39724121288377445,-0.009779822917617345
1057,410.454388,-6.66231536865234,22.57323265075684,79.17876434326172,-0.7584129547586244,-0.36078280332137136,-0.02288197984500816
1058,410.462721,1.62871766090393,23.8127555847168,84.9140396118164,-0.7358432789238132,-0.3559242705909571,-0.02949356120459898
1059,410.471054,11.6932315826416,25.0000171661377,89.32749938964844,-0.7079889822979367,-0.3926929649041622,-0.03047063338513265
1060,410.479387,18.96671676635742,25.43076515197754,91.86464691162108,-0.6877134284194633,-0.4116214538107112,-0.03158719868076122
1061,410.48771999999997,22.25976753234863,25.20733833312988,93.41221618652344,-0.68317106791905,-0.40338504071138365,-0.036226656972145915
1062,410.49605299999996,23.01960182189941,24.59044456481934,94.37419128417967,-0.6759763250545581,-0.3986136767329,-0.03950457487787551
1063,410.50438599999995,21.682861328125,23.8026237487793,95.0322265625,-0.6757249637525907,-0.39857798693131424,-0.0495195388793949
1064,410.512719,19.01070594787598,22.56277847290039,95.3787841796875,-0.6780797608044683,-0.3928368432181224,-0.06237997692458468
1065,410.521052,15.32928943634033,21.19293785095215,95.75281524658205,-0.685398627300652,-0.3963579936903347,-0.06679861521234286
1066,410.529385,10.56448841094971,19.84087753295898,95.72992706298828,-0.6937741746707836,-0.40691660375011224,-0.06713291212004081
