,timestamp,GyrY,GyrX,GyrZ,AccY,AccX,AccZ
163,403.004686,-1.27680563926697,-2.02972316741943,-1.39422118663788,0.9569379261561806,-0.1428909812654765,0.253612119324353
164,403.013019,-1.30188202857971,-1.93151843547821,-1.27923905849457,0.9564473677654654,-0.14197963841107447,0.25316068104335204
165,403.021352,-1.36353552341461,-1.73866879940033,-1.33994483947754,0.9572159514135246,-0.14418733363248876,0.2523044907316867
166,403.029685,-1.43707394599915,-1.71666610240936,-1.23034143447876,0.9563547251175857,-0.14290155196676427,0.2509946725806408
167,403.03801799999997,-1.35100996494293,-1.69343388080597,-1.25938773155212,0.957395689828055,-0.14305958942491223,0.24892130676580915
168,403.04635099999996,-1.53253793716431,-1.80436885356903,-1.16574227809906,0.9568498572524714,-0.14250291853534897,0.25033478834191125
169,403.054684,-1.15539419651031,-1.78490233421326,-1.23446524143219,0.9580415608931561,-0.14290206286371937,0.25097224177146427
170,403.063017,-1.20593106746674,-1.74099969863892,-1.27475666999817,0.9563995867359398,-0.14168628624507346,0.2513215006614214
171,403.07135,-1.08661985397339,-1.84829747676849,-1.28787088394165,0.9536133980264468,-0.1423027442426102,0.25063568232010813
172,403.079683,-1.15636742115021,-1.71379733085632,-1.37014400959015,0.9534983732262438,-0.1427438429423745,0.24801183720024286
173,403.088016,-1.15460002422333,-1.34477281570435,-1.33041608333588,0.9535964654416448,-0.14098897272226735,0.2516298877949612
174,403.096349,-1.05885398387909,-1.06106984615326,-1.32396137714386,0.9532645283913121,-0.14449840905714997,0.2495944256685214
175,403.10468199999997,-1.01551473140717,-0.93799316883087,-1.31919705867767,0.9562063217163081,-0.1450384879598816,0.24946750426778977
176,403.11301499999996,-1.09663510322571,-0.86606848239899,-1.46801590919495,0.9556435565559235,-0.14478329493075,0.2495866405720612
177,403.12134799999995,-1.29225099086761,-0.90305548906326,-1.55377221107483,0.9566128010652499,-0.14381767535696224,0.24951253618512856
178,403.129681,-1.20354878902435,-1.0213930606842,-1.38763821125031,0.9580176217215397,-0.14438433306557755,0.24963242667061936
179,403.138014,-1.11856079101562,-0.8656330704689,-1.37004125118256,0.9571111445524254,-0.14427773806513572,0.2480871336800714
180,403.146347,-1.190434217453,-0.94639474153519,-1.38062000274658,0.9573805088899571,-0.14309733497853164,0.24938038417271222
181,403.15468,-0.98905539512634,-0.99895519018173,-1.35551822185516,0.9586225237165183,-0.1424905110378653,0.24923331883488875
182,403.163013,-0.9417969584465,-1.14503312110901,-1.38295102119446,0.9582277220122662,-0.14288236900251733,0.24931768981777855
183,403.17134599999997,-0.94625389575958,-1.1758725643158,-1.35636329650879,0.9569360771957702,-0.14230094393905304,0.24535548930265508
184,403.17967899999996,-1.10839188098907,-0.99055361747742,-1.27841925621033,0.9564553474893377,-0.14130030359540713,0.24848777420666734
185,403.18801199999996,-0.96131485700607,-0.77777624130249,-1.22211909294128,0.9578386618166551,-0.14210379853540508,0.24769622452404996
186,403.196345,-0.82450926303864,-0.74329942464828,-1.06389999389648,0.9572124481201173,-0.14172920158931224,0.24649938758538673
187,403.204678,-0.86408340930939,-0.72214210033417,-1.11643481254578,0.9568854740687774,-0.14296343131941222,0.2446410850602755
188,403.213011,-0.88857060670853,-0.78061950206757,-1.21722686290741,0.957495436376455,-0.14441507203238366,0.24471528676091425
189,403.221344,-1.01490008831024,-0.69650226831436,-1.2171756029129,0.955789527114557,-0.14478069178912142,0.243236969928352
190,403.229677,-1.20319020748138,-0.57778030633926,-1.19571089744568,0.9559880470742979,-0.1458383944569806,0.24690611021859285
191,403.23801,-1.25457239151001,-0.552883207798,-1.16756081581116,0.9564314083177213,-0.14423291293942242,0.24889768386373673
192,403.24634299999997,-1.1979649066925,-0.55754506587982,-1.23390161991119,0.9554306341677296,-0.14480778149196122,0.24605001722063366
193,403.25467599999996,-1.27703595161438,-0.57035213708878,-1.20687866210938,0.9575465260719764,-0.14261065697183367,0.24505189486912343
194,403.26300899999995,-1.1470183134079,-0.69470930099487,-1.23587417602539,0.9572852387720224,-0.14108118962268468,0.24578089616736631
195,403.271342,-1.042973279953,-0.66205114126205,-1.25067925453186,0.958071046946,-0.14176883259598058,0.24497985839843775
196,403.279675,-1.05811131000519,-0.63805055618286,-1.28571927547455,0.9595983855578367,-0.14270586626870305,0.24494823144406733
197,403.288008,-1.01238989830017,-0.58943474292755,-1.44488608837128,0.9600668537373448,-0.14354342100571632,0.2462982644840163
198,403.296341,-1.00450050830841,-0.70649176836014,-1.39457976818085,0.9634253443503867,-0.1440038851329255,0.24462081948105205
199,403.304674,-0.98303586244583,-0.99357599020004,-1.40321183204651,0.9636237669964224,-0.14376039407691224,0.24642730245784794
200,403.31300699999997,-1.02155959606171,-1.05461478233337,-1.41238152980804,0.9608835103560468,-0.14316758330987447,0.2453380458208979
201,403.32133999999996,-0.93449699878693,-1.23852527141571,-1.2708375453949,0.9581765350030398,-0.14170239166337653,0.24323108244915406
202,403.32967299999996,-0.95196586847305,-1.21926319599152,-1.3641756772995,0.954802960765605,-0.14281173141635203,0.24468903638878672
203,403.338006,-1.01579654216766,-0.90005856752396,-1.2481175661087,0.952026016858159,-0.1421919647528204,0.24535449183717037
204,403.346339,-0.93639236688614,-0.60797947645187,-1.10170650482178,0.9532506125313898,-0.14130368524668163,0.2427806173052102
205,403.354672,-0.82043671607971,-0.44876131415367,-0.98090982437134,0.9548177524488796,-0.1427539392393459,0.24548124293891732
206,403.363005,-0.63806349039078,-0.343819886446,-1.18095719814301,0.9566876353049764,-0.140557763527851,0.24380973407200407
207,403.371338,-0.80371063947678,-0.30678167939186,-1.24786150455475,0.9602948597499306,-0.141556980658551,0.24667306822173465
208,403.379671,-0.8518653512001,-0.36917793750763,-1.20618712902069,0.9624565864095876,-0.14376192676777755,0.24738107408796017
209,403.38800399999997,-0.89720243215561,-0.22248524427414,-1.2261917591095,0.9635135105678009,-0.14601217240703365,0.24283973538145712
210,403.39633699999996,-1.09789025783539,-0.50982576608658,-1.2175600528717,0.963697822726503,-0.1472515840919653,0.24095182516136937
211,403.40467,-1.13677251338959,-0.70810550451279,-1.30231726169586,0.9618767913506958,-0.14843073426460715,0.23983831308325917
212,403.413003,-1.35162484645844,-1.03363692760468,-1.22030055522919,0.9620712241347958,-0.1505213732622112,0.23887461545516017
213,403.421336,-1.46312367916107,-1.22105622291565,-1.20774960517883,0.9601222252359193,-0.1511180644132653,0.23830114578714184
214,403.429669,-1.37383222579956,-1.01734614372253,-1.27496135234833,0.955671096334652,-0.14936055455888977,0.24081461283625405
215,403.438002,-1.43989145755768,-0.93960696458817,-1.19980919361115,0.9557712321378744,-0.14789679828955204,0.2411711945825694
216,403.446335,-1.4036728143692,-0.71842801570892,-1.23523366451263,0.9537191780246029,-0.14528953299230407,0.23869874526043366
217,403.45466799999997,-1.38955950737,-0.54048597812653,-1.19640243053436,0.9529827078994438,-0.14711377572040205,0.24281757218497144
218,403.46300099999996,-1.42962002754211,-0.33677595853806,-1.22611486911774,0.953211978990204,-0.1459379707063949,0.24138234099563263
219,403.47133399999996,-1.40900063514709,0.04212260618806,-1.31389498710632,0.9537362079231102,-0.14696848635770815,0.24056412735763877
220,403.479667,-1.61990833282471,-0.02289912849665,-1.16246378421783,0.9554405601657162,-0.14552045841606326,0.2426875367456551
221,403.488,-1.64849376678467,0.07595901191235,-1.27514064311981,0.9569535936628071,-0.1455183540071755,0.24473569831069591
222,403.496333,-1.78260958194733,0.02019682340324,-1.33500099182129,0.9590819417213908,-0.14650849663481427,0.24246558851125305
223,403.504666,-1.78576040267944,-0.02259175665677,-1.2627946138382,0.9615142004830499,-0.14445385154412754,0.24580147801613364
224,403.512999,-1.78983306884766,-0.10343027859926,-1.33097970485687,0.9603680396566582,-0.1451433191494061,0.24479325936765098
225,403.521332,-1.64700818061829,-0.11505915224552,-1.38469278812408,0.9592481535308215,-0.14735882379570814,0.24385340359746224
226,403.52966499999997,-1.8191614151001,-0.16772200167179,-1.5130969285965,0.958251174615354,-0.14455829347882956,0.24038390237457855
227,403.53799799999996,-1.74083292484283,-0.14728184044361,-1.49557662010193,0.9577870855526049,-0.14483223156053163,0.2416900226048061
228,403.546331,-1.92640817165375,-0.1440032273531,-1.47831284999847,0.9576942482773142,-0.14662501763324387,0.24436950683593775
229,403.554664,-1.76665234565735,-0.05217619985342,-1.52813255786896,0.956290692699199,-0.1433349142269214,0.2440653771770245
230,403.562997,-1.636070728302,0.19606414437294,-1.51419818401337,0.9575736765958826,-0.14468262390214592,0.24616253619291326
231,403.57133,-1.65361654758453,0.26970505714417,-1.62211108207703,0.9594883237566264,-0.1406701851864255,0.2438894826538704
232,403.579663,-1.41271448135376,0.16314986348152,-1.60840737819672,0.9597788051683072,-0.14104041517997243,0.24269172123500304
233,403.587996,-1.361332654953,0.22042332589626,-1.68209969997406,0.9621250386140786,-0.14351125882596427,0.24457396293173062
234,403.59632899999997,-1.64997923374176,0.2672461271286,-1.67070114612579,0.9625502021945254,-0.14467072730161734,0.2444061697745806
235,403.60466199999996,-1.51335322856903,0.30592361092567,-1.54265582561493,0.9609312913855723,-0.1465255022048949,0.24338897393674283
236,403.61299499999996,-1.77682101726532,0.1708085089922,-1.51222586631775,0.9636386559934029,-0.14662434860151632,0.2454752338175867
237,403.621328,-1.69027042388916,-0.29069593548775,-1.50236451625824,0.9657053071625377,-0.14493565170132347,0.24434096959172447
238,403.629661,-1.61350476741791,-0.73789489269257,-1.54050421714783,0.9606822656125438,-0.14598121448438978,0.24288946268509795
239,403.637994,-1.67859041690826,-0.94770115613937,-1.50984382629395,0.9589743127628244,-0.14439941668997042,0.24291408305265508
240,403.646327,-1.43294990062714,-0.87154990434647,-1.68135678768158,0.9573488819355866,-0.14206141841654896,0.2459186193894367
241,403.65466,-1.43561375141144,-0.47440126538277,-1.74987483024597,0.9573914080250019,-0.14467556865847855,0.24636032629986224
242,403.662993,-1.37262856960297,-0.27658250927925,-1.60515451431274,0.9600253007849866,-0.1448739426476612,0.2422642221256173
243,403.67132599999997,-1.54178476333618,-0.4812658727169,-1.5381475687027,0.962752614702497,-0.14597541215468468,0.24416062296653265
244,403.67965899999996,-1.29086780548096,-0.8551824092865,-1.42121863365173,0.9606630948125101,-0.14814088539201428,0.24389714610819893
245,403.687992,-1.4284930229187,-1.00123476982117,-1.38067126274109,0.9592259660059091,-0.15097655812088365,0.24436478712120815
246,403.696325,-1.5002384185791,-0.90502780675888,-1.59455001354218,0.9586987203481243,-0.14940580543206633,0.24258370302161428
247,403.704658,-1.5834333896637,-0.68612849712372,-1.52480244636536,0.9558325397725009,-0.15298254635869285,0.2463104043688092
248,403.712991,-1.75428068637848,-0.56361556053162,-1.5130969285965,0.9587313204395531,-0.1508886108593061,0.24313063037638774
249,403.721324,-1.90855526924133,-0.70290595293045,-1.75410139560699,0.9589608834714305,-0.14699567337425407,0.24521937175672856
250,403.729657,-1.96923518180847,-0.69565695524216,-1.61834573745728,0.9593043035390428,-0.1475727436493857,0.2444550212548704
251,403.73798999999997,-2.11818218231201,-0.7685295343399,-1.7769490480423,0.9581410155004387,-0.15102161436664796,0.2402983149703663
252,403.74632299999996,-2.1881856918335,-0.51569139957428,-1.71063375473022,0.9604459879349694,-0.1490987928546204,0.24441249516545507
253,403.75465599999995,-2.35250115394592,-0.37611946463585,-1.65297639369965,0.9649274787124326,-0.1501827580588204,0.24462344695110713
254,403.762989,-2.50349712371826,-0.66233289241791,-1.66199266910553,0.9677232041650886,-0.1482742659899653,0.24404263009830404
255,403.771322,-2.48510599136353,-1.16409003734589,-1.70750892162323,0.9640977820571591,-0.14828747632552142,0.24202684966885302
256,403.779655,-2.53938269615173,-1.62975704669952,-1.60379707813263,0.9641576299861989,-0.14650949410029793,0.24292799891257752
257,403.787988,-2.54737424850464,-1.74502110481262,-1.66329884529114,0.9610947784112427,-0.14714334692273776,0.24133280831940304
258,403.796321,-2.4308295249939,-1.72952449321747,-1.60113310813904,0.9562856323865,-0.14552195461428877,0.2419658583037704
259,403.80465399999997,-2.57826495170593,-1.43977618217468,-1.5858668088913,0.9548120109402408,-0.14518465314592652,0.24132949965340714
260,403.81298699999996,-2.68312978744507,-1.01534831523895,-1.55991971492767,0.9537569357424367,-0.14626450684605816,0.23707757190782244
261,403.82131999999996,-2.67562460899353,-0.77324247360229,-1.47270321846008,0.955837697398906,-0.14602676946289694,0.24215647152491937
262,403.829653,-2.61965751647949,-0.66532981395721,-1.42979943752289,0.9556882235468651,-0.14424600163284593,0.24446426605691732
263,403.837986,-2.77242064476013,-0.63782006502151,-1.52516114711761,0.9558091844831194,-0.14641446726662755,0.24087013030538776
264,403.846319,-2.62109184265137,-0.46110746264458,-1.53276860713959,0.9552470032049682,-0.144051021459151,0.2444362883665122
265,403.854652,-2.73046469688416,-0.41100600361824,-1.47224223613739,0.9550932475498743,-0.142396639804451,0.24230375581858057
266,403.862985,-2.41018414497375,-0.4682794213295,-1.69618737697601,0.9551012272737458,-0.1410682712282449,0.24301584886044897
267,403.871318,-2.21866679191589,-0.36925479769707,-1.60735726356506,0.9558304961846795,-0.1417563642774306,0.24339374230832445
268,403.87965099999997,-2.22965478897095,-0.2632375061512,-1.69401013851166,0.9564253748679642,-0.13983739882099386,0.23980928927051734
269,403.88798399999996,-1.94374918937683,-0.07387145608664,-1.75333297252655,0.9571680730702928,-0.14085527585477245,0.24356321412689794
270,403.89631699999995,-1.95945072174072,-0.10983384400606,-1.72541332244873,0.9579508645193918,-0.1423005668484439,0.2426737668562908
271,403.90465,-1.89736151695251,-0.02384684979916,-1.90363717079163,0.9598921756355131,-0.1426205586413949,0.2427512772229255
272,403.912983,-1.98022365570068,-0.05468639731407,-1.84736251831055,0.9603390401723427,-0.14432622461902855,0.24177699672932548
273,403.921316,-1.83286511898041,0.0096181454137,-1.88647568225861,0.9594823876205755,-0.14431364682255918,0.24197756027688774
274,403.929649,-1.84311079978943,-0.04549087956548,-1.92028653621674,0.9599963986143775,-0.14351925071404897,0.23662511183291018
275,403.937982,-1.89874505996704,-0.14554008841515,-1.71501398086548,0.9595285143171041,-0.14227519229966734,0.23810284478323776
276,403.94631499999997,-1.87443697452545,-0.12604765594006,-1.8347350358963,0.9606524876185826,-0.14381572908284693,0.2346700308274245
277,403.95464799999996,-1.68138229846954,-0.21188093721867,-1.72856402397156,0.96239693310796,-0.1452020479708306,0.23786773487013163
278,403.96298099999996,-1.68581366539001,-0.32550570368767,-1.5909640789032,0.9609555224983061,-0.14560761500378058,0.2369950255569143
279,403.971314,-1.66906201839447,-0.31551617383957,-1.65515351295471,0.9596618340939888,-0.14378939356122653,0.23365723843477246
280,403.979647,-1.61785900592804,-0.13977687060833,-1.55897188186646,0.9604798531045713,-0.14391775033911836,0.23660703581206632
281,403.98798,-1.54660046100616,-0.02948198467493,-1.43067038059235,0.9607741297507776,-0.14501660454029897,0.23944358436428773
282,403.996313,-1.54747116565704,-0.11849144101143,-1.53653383255005,0.961565971374511,-0.14398433724228263,0.23725443956803263
283,404.004646,-1.57895112037659,-0.26282766461372,-1.58363854885101,0.9594020064996215,-0.1437100463983959,0.23658392380694998
284,404.012979,-1.73998773097992,-0.06728859245777,-1.63435482978821,0.9610253937390387,-0.14538636012953163,0.2395627693254122
285,404.02131199999997,-1.55062162876129,-0.00560951698571,-1.63043570518494,0.9596487940574183,-0.14347607992133266,0.23938468524387857
286,404.02964499999996,-1.49360454082489,0.09286441653967,-1.64060461521149,0.9596230059253927,-0.14409285418841325,0.24027746550890813
287,404.037978,-1.49760019779205,-0.02392369508743,-1.47805655002594,0.9597607048190367,-0.14456053169406224,0.23552155008121428
288,404.046311,-1.4061576128006,-0.3274267911911,-1.66488707065582,0.9590501201396081,-0.1421216069435592,0.23363478329716936
289,404.054644,-1.3115895986557,-0.22794108092785,-1.72456789016724,0.9561465711009745,-0.1417303085327153,0.23567141318807755
290,404.062977,-1.26394736766815,-0.17412558197975,-1.70745766162872,0.9568870310880703,-0.14077937116428266,0.23871927845234794
291,404.07131,-1.00975155830383,0.0331320092082,-1.66498935222626,0.9542886578306857,-0.13823796291740612,0.23770570755004894
292,404.079643,-1.08705508708954,0.49400886893272,-1.57405865192413,0.9556581536117866,-0.13907764639173265,0.23821952391643875
293,404.08797599999997,-0.87094801664352,0.59001111984253,-1.62846338748932,0.959686649088957,-0.13791636544830918,0.24131088840718162
294,404.09630899999996,-0.726458132267,0.53181552886963,-1.59521615505219,0.9593011895004582,-0.14123945820088263,0.2393179280417306
295,404.10464199999996,-0.81569814682007,0.71941429376602,-1.65761256217957,0.9624164931628174,-0.1385694133992102,0.24090353323488772
296,404.112975,-0.90089118480682,0.65978419780731,-1.77192866802216,0.9634043245899439,-0.1394965940592245,0.23739612832361323
297,404.121308,-0.8631357550621,0.66974830627441,-1.77497696876526,0.9641314525993498,-0.14407393883685715,0.23938638823372957
298,404.129641,-0.95227319002151,0.55458652973175,-1.78381359577179,0.9668165323685622,-0.14589146691925714,0.23523530181573366
299,404.137974,-1.0344181060791,0.46019813418388,-1.71977806091309,0.9646182157555407,-0.14885903621206428,0.23546615425421225
300,404.146307,-1.33656358718872,0.1027002632618,-1.70402538776398,0.9661973252588386,-0.14760330015299283,0.23581156925279284
301,404.15464,-1.35439121723175,-0.10640154033899,-1.68937420845032,0.9628546967798346,-0.14663769274341837,0.23669118783911833
302,404.16297299999997,-1.3815678358078,-0.19454009830952,-1.66288900375366,0.959743966861647,-0.14716411123470408,0.23618946270066835
303,404.17130599999996,-1.40459501743317,-0.38372683525085,-1.5696017742157,0.9592431905318275,-0.14418466966979387,0.23395044463021428
304,404.179639,-1.19811868667603,-0.14769169688225,-1.52267670631409,0.956352486902354,-0.14546734946114692,0.23570291850031633
305,404.187972,-1.24010038375854,0.0821320489049,-1.42357504367828,0.9530743774102663,-0.14209838546052242,0.23353691003760507
306,404.196305,-1.26169312000275,0.31937110424042,-1.56061124801636,0.9544615842858142,-0.14249182477289285,0.23721969857507857
307,404.204638,-1.27701044082642,0.64787364006042,-1.45607960224152,0.952924514303402,-0.14337042156530916,0.2337633347024724
308,404.212971,-1.38038945198059,0.96292871236801,-1.49847102165222,0.9541953339868663,-0.14406279641754796,0.23528945689298672
309,404.221304,-1.42977380752563,0.95293915271759,-1.45072627067566,0.958015286192602,-0.143439149369999,0.23656013060589184
310,404.22963699999997,-1.27491009235382,0.93787795305252,-1.48535668849945,0.9588855626631754,-0.14304575871448164,0.23684640319979897
311,404.23796999999996,-1.50602722167969,0.77351146936417,-1.50976717472076,0.9607298520146581,-0.14451642425692857,0.23456337500591629
312,404.24630299999995,-1.41309893131256,0.45763677358627,-1.56084203720093,0.9626645457987877,-0.14317946774618978,0.23267994121629385
313,404.254636,-1.4835125207901,0.42846208810806,-1.54370582103729,0.9635935997476388,-0.14297641053491733,0.23145899480702956
314,404.262969,-1.38646018505096,0.26491522789001,-1.5621737241745,0.9633441847197867,-0.140991855640801,0.23260420682478877
315,404.271302,-1.40205919742584,0.31440192461014,-1.45262169837952,0.9645782198224745,-0.14341797147478366,0.2317777945070847
316,404.279635,-1.2145117521286,0.02119577862322,-1.49014639854431,0.961269845767897,-0.14516879101188773,0.2337167214374153
317,404.287968,-1.38320708274841,-0.10947523266077,-1.43989145755768,0.9596929744798306,-0.1428283112389704,0.23789877794226832
318,404.29630099999997,-1.16569101810455,-0.05273970589042,-1.42285788059235,0.9586327416556223,-0.14375410517867754,0.23745042937142546
319,404.30463399999996,-1.11735701560974,0.01192342769355,-1.38692140579224,0.9594145599676643,-0.14053394599836733,0.23851642803269996
320,404.31296699999996,-0.97471123933792,0.30548819899559,-1.39053273200989,0.9600717194226326,-0.1419196810041153,0.2383683165725398
321,404.3213,-0.98867094516754,0.23174476623535,-1.4399938583374,0.9565248294752469,-0.14251071579602345,0.23691559324459183
322,404.329633,-0.77522766590118,0.39844223856926,-1.42165410518646,0.9605969214925958,-0.1434028270293255,0.2367766292727724
323,404.337966,-0.9097535610199,0.47769266366959,-1.42808318138123,0.9609523111460163,-0.14596804064147345,0.23874864286305916
324,404.346299,-0.89943093061447,0.53089338541031,-1.44386160373688,0.9619625247254663,-0.1468898690476714,0.2392787106183112
325,404.354632,-0.96087956428528,0.53983283042908,-1.37898075580597,0.9627349036080499,-0.1477064770095204,0.23592114448547344
326,404.362965,-1.01336336135864,0.27977147698402,-1.36187052726746,0.9615867965075438,-0.15122433097995103,0.23568114455865302
327,404.37129799999997,-1.24186778068542,0.05738869681954,-1.27265620231628,0.9623329980032785,-0.14961037100577856,0.2379262933925704
328,404.37963099999996,-1.22573065757751,-0.08970104902983,-1.35538995265961,0.9605462210518969,-0.14871862469887243,0.2347067424229214
329,404.38796399999995,-1.36210083961487,-0.06708367913961,-1.41005074977875,0.9588027486995774,-0.14977681393526018,0.23834744278265507
330,404.396297,-1.24158596992493,0.14309391379356,-1.48202669620514,0.9576946375321366,-0.15503070792373366,0.23640099836855508
331,404.40463,-1.47134554386139,0.10075359046459,-1.54447424411774,0.9614454970067857,-0.15379020145961225,0.2332687621213949
332,404.412963,-1.70507550239563,0.1434268951416,-1.44616675376892,0.9623318302388092,-0.1533941711698255,0.23957267099497245
333,404.421296,-1.79721021652222,0.00608338136226,-1.63993871212006,0.962657247270856,-0.14920401329896937,0.23837425270859078
334,404.429629,-1.87633240222931,-0.22112768888474,-1.66260719299316,0.9652502682744245,-0.14867461457544487,0.2374726655531898
335,404.43796199999997,-2.03391122817993,-0.3764012157917,-1.75604808330536,0.9635231446246713,-0.14984175866963878,0.23942533804445812
336,404.44629499999996,-2.22960376739502,-0.53221255540848,-1.82602596282959,0.9617143747757888,-0.14839832880059078,0.23795259242155098
337,404.45462799999996,-2.25211882591248,-0.58000874519348,-1.87082529067993,0.9622894014631,-0.15096603607644793,0.23853798301852447
338,404.462961,-2.52409076690674,-0.49304836988449,-1.8273833990097,0.9626145265540296,-0.1522747472840908,0.23961213170265713
339,404.471294,-2.47918891906738,-0.32496780157089,-1.79989957809448,0.9627336385298744,-0.15154192642289796,0.23796517021802038
340,404.479627,-2.75566864013672,-0.54391825199127,-1.67105984687805,0.9684760229928152,-0.14902620899433977,0.2404914096910122
341,404.48796,-3.13634777069092,-1.0899623632431,-1.55228662490845,0.9688810426361705,-0.1464984733231214,0.24194834183673466
342,404.496293,-3.45404100418091,-1.57704281806946,-1.49911153316498,0.9699074102907764,-0.14430638478726734,0.23790427616664386
343,404.504626,-3.64648103713989,-1.90354752540588,-1.49427056312561,0.9642721682178734,-0.14119800256223058,0.23874127134984896
344,404.51295899999997,-3.76845622062683,-1.67107272148132,-1.48620188236237,0.9569328658434805,-0.1394927988247,0.23859941229528264
345,404.52129199999996,-3.48055171966553,-1.40834748744965,-1.50323534011841,0.9551265288372428,-0.13836776723667038,0.24379231491867343
346,404.529625,-3.32927441596985,-0.85382485389709,-1.29025292396545,0.957469258989606,-0.13853099881386224,0.24090448204351939
347,404.537958,-3.09687662124634,-0.7185817360878,-1.26973628997803,0.9592574956465744,-0.1369908269570796,0.23843322481427853
348,404.546291,-3.03353261947632,-0.85431164503098,-1.32352602481842,0.9612079542510367,-0.13757213037841223,0.23627376069827957
349,404.554624,-3.30355739593506,-0.86596602201462,-1.30405914783478,0.9642239006198183,-0.13841626595477652,0.23998708141093367
350,404.562957,-3.70516300201416,-1.23849940299988,-1.4325658082962,0.9618436073770326,-0.14018831204394896,0.2363506871826796
351,404.57129,-4.02462434768677,-1.47133302688599,-1.40999960899353,0.9617347133402917,-0.14053219435166325,0.23574573653084893
352,404.57962299999997,-4.07124185562134,-1.40555572509766,-1.54578077793121,0.9594602000956632,-0.14078542894246632,0.23861235501814895
353,404.58795599999996,-3.98553657531738,-1.15384447574615,-1.53266632556915,0.9562960449530153,-0.1418655745837153,0.2401528066518357
354,404.59628899999996,-3.83326005935669,-0.75159853696823,-1.6623512506485,0.956903574418049,-0.14336711289931325,0.24176943058870307
355,404.604622,-3.74629950523376,-0.71714735031128,-1.80835235118866,0.9586248592454562,-0.1424711821030602,0.24100145515130508
356,404.612955,-3.6961727142334,-0.7135101556778,-1.97343611717224,0.9593320379451825,-0.14606955100078978,0.2406210315470796
357,404.621288,-3.85756802558899,-0.92313712835312,-2.12617373466492,0.9602725749113121,-0.1465674079194357,0.2424324775228694
358,404.629621,-4.21778106689453,-1.03827309608459,-2.03841948509216,0.9600508942896009,-0.14478755240537652,0.24005218428008368
359,404.637954,-4.45714569091797,-0.92339313030243,-2.26049470901489,0.9583968532328704,-0.1478965306768612,0.2388720123135316
360,404.646287,-4.75965023040771,-0.83177107572556,-2.38567161560059,0.9578157930958031,-0.1432887753661796,0.23952676325428263
361,404.65461999999997,-4.74917411804199,-0.7284688949585,-2.50680136680603,0.956758187741649,-0.14221720549525,0.2350264666031816
362,404.66295299999996,-4.87476062774658,-0.41582146286964,-2.57749629020691,0.956614455398248,-0.14092750695286937,0.23415528998082955
363,404.671286,-4.97537326812744,-0.16147214174271,-2.60408425331116,0.9571992134561347,-0.14051799871483672,0.2345629370942408
364,404.679619,-4.80639600753784,0.35943177342415,-2.49499297142029,0.9581990144690693,-0.14034561964930306,0.23250273295811225
365,404.687952,-4.65898656845093,0.60015439987183,-2.51008009910583,0.9612181721901408,-0.1392491374697,0.23144490864812142
366,404.696285,-4.50993680953979,0.32290586829185,-2.44233012199402,0.9635641136947939,-0.14130378256038775,0.2316357894819612
367,404.704618,-4.53760051727295,-0.06472717225552,-2.2298858165741,0.964515160541145,-0.13919048163355613,0.2297793845741112
368,404.712951,-4.57520246505737,-0.36167296767235,-2.30647230148315,0.9659839163021163,-0.14005359338254386,0.23180270681575815
369,404.72128399999997,-4.5274829864502,-0.27998924255371,-2.04917740821838,0.9612519400460376,-0.13770817493905815,0.23328479455441833
370,404.72961699999996,-4.51265239715576,-0.19423274695873,-2.19256591796875,0.9601318592927897,-0.1391000042156296,0.23329182546965915
371,404.73794999999996,-4.54461908340454,0.29849550127983,-2.14261794090271,0.9588554927280969,-0.14175267852082551,0.23080451147896938
372,404.746283,-4.47097778320312,0.4053068459034,-2.13918590545654,0.9585929403499682,-0.1403857128960745,0.23382622368481734
373,404.754616,-4.63583087921143,0.42344176769257,-2.02320456504822,0.9598163682587295,-0.14152273839833776,0.23261206490652855
374,404.762949,-4.43852472305298,0.34821271896362,-2.07261419296265,0.9588158860498541,-0.1442933447506959,0.23223640967388567
375,404.771282,-4.41383218765259,0.33894038200378,-2.11262392997742,0.9607565159700356,-0.1446796193414806,0.22856413101663367
376,404.779615,-4.46895456314087,0.55812132358551,-2.07386946678162,0.958353451320103,-0.14518981077233165,0.23083567619323775
377,404.787948,-4.76797437667847,0.52538639307022,-2.07284450531006,0.9603731972830631,-0.14655188638336836,0.23295713930713877
378,404.79628099999996,-4.97895908355713,0.68398976325989,-2.19912314414978,0.9616482987695805,-0.14794481043912958,0.23338510065662652
379,404.80461399999996,-5.01215505599976,0.91500449180603,-2.21812891960144,0.964842426533602,-0.1470341974375204,0.2332495913213612
380,404.812947,-4.99983406066895,0.88731551170349,-2.36566662788391,0.9681014625393612,-0.14392090087034284,0.23484169220437856
381,404.82128,-4.99914264678955,0.51309156417847,-2.40183401107788,0.9672421825175387,-0.14369965816030714,0.2351037823424051
382,404.829613,-4.93807935714722,0.28502240777016,-2.4175865650177,0.9683760818170041,-0.14283695999456938,0.23205995559692344
383,404.837946,-5.09332656860352,0.07178388535976,-2.45946598052979,0.9696662669279131,-0.14254388760547243,0.23304260506921834
384,404.846279,-5.32513570785522,-0.12504871189594,-2.55695390701294,0.9690984414548286,-0.14318501462741734,0.23273251494582858
385,404.854612,-5.39862251281738,-0.12461325526237,-2.50992584228516,0.9681934239913009,-0.1436204934606745,0.23337033330177753
386,404.86294499999997,-5.42426204681396,-0.35352766513824,-2.4199686050415,0.9699062425263072,-0.14596041367978468,0.23110613530995916
387,404.87127799999996,-5.61017084121704,-0.92426407337189,-2.33078026771545,0.9707692204689489,-0.1446537947168153,0.22883244923182855
388,404.87961099999995,-5.73796033859253,-1.54451298713684,-2.3118257522583,0.9657744972073304,-0.14264431534981223,0.2309326979578755
389,404.887944,-5.73557758331299,-1.77819132804871,-2.36520552635193,0.9600094386509489,-0.14138167001763163,0.22816592333268162
390,404.896277,-5.56391143798828,-1.59871256351471,-2.04241514205933,0.9567622749172907,-0.13929577506318366,0.22900286985903365
391,404.90461,-5.67976474761963,-1.16672849655151,-2.00576138496399,0.9521473670492366,-0.13715531144823367,0.2294575681491775
392,404.912943,-5.41767978668213,-0.67578035593033,-2.02950525283813,0.952449526105608,-0.13561756026988162,0.22585163311082448
393,404.921276,-5.36148262023926,0.00032017796184,-2.08852076530457,0.9539443619397223,-0.13410672849538366,0.2276166604489694
394,404.92960899999997,-5.13610219955444,0.44406118988991,-2.12543058395386,0.9564414316294142,-0.13551270475192959,0.22709133673687346
395,404.93794199999996,-5.17070722579956,0.42864137887955,-2.12491846084595,0.9580391280505122,-0.13561781571835918,0.2297165442486194
396,404.94627499999996,-4.74960899353027,0.55148726701736,-2.25193953514099,0.9614097828767734,-0.138677480269451,0.23196665608153058
397,404.954608,-4.46675062179565,0.60596877336502,-2.16572189331055,0.9644575508273378,-0.13973215404821937,0.23356697997268364
398,404.962941,-4.0942177772522,0.55176901817322,-2.19476866722107,0.969909453878597,-0.14245154906292345,0.2327541672453592
399,404.971274,-3.74752879142761,0.40187454223633,-2.30222034454346,0.9715633003079163,-0.14709889888763467,0.23554741119851832
400,404.979607,-3.60285997390747,-0.04938424751163,-2.28974652290344,0.9754460198538641,-0.14896356329625918,0.2364664418356755
401,404.98794,-3.53421401977539,-0.49545615911484,-2.56530427932739,0.9778673794804784,-0.15043930131561936,0.24083808976776735
402,404.996273,-3.58695340156555,-1.30197167396545,-2.96460437774658,0.9770159818688213,-0.15364030186010816,0.2388388040114418
403,405.00460599999997,-3.65913438796997,-2.0378429889679,-3.24602794647217,0.9769320001407539,-0.15772769645768775,0.23733550188492752
404,405.01293899999996,-3.43483066558838,-2.96308064460754,-3.54228258132935,0.9748465674264092,-0.15959279877798876,0.23658136932217344
405,405.02127199999995,-2.95743227005005,-3.71052932739258,-3.67160844802856,0.9730822699410571,-0.15712194296778467,0.2389417619121316
406,405.029605,-1.94185376167297,-4.11856460571289,-3.97495794296265,0.973948751177106,-0.15126426609194998,0.23566282525354487
407,405.037938,-0.86610698699951,-4.43218517303467,-4.15108156204224,0.9784716975932214,-0.14718125061112958,0.23821037642809795
408,405.046271,-0.29816249012947,-4.81644868850708,-4.33483743667603,0.9779821123395643,-0.14236959875846428,0.23833856290700509
409,405.054604,-0.05503218993545,-5.30998468399048,-4.40932464599609,0.9772377598042387,-0.14050889988334794,0.2449462608415255
410,405.062937,0.30237609148026,-5.55475473403931,-4.33837270736694,0.9674987987596163,-0.14033515842593466,0.2525278500148224
411,405.07126999999997,0.80577260255814,-5.20381307601929,-3.60129714012146,0.9647322674186856,-0.14329576978878059,0.2538856438228061
412,405.07960299999996,1.03671061992645,-5.10881090164185,-2.79047894477844,0.9602922322798744,-0.14332809010330508,0.25408829961504287
413,405.08793599999996,1.40850126743317,-5.68889665603638,-1.86132264137268,0.9574203101956112,-0.14423412936074387,0.25079116529347956
414,405.096269,1.87754917144775,-5.99406385421753,-1.32040095329285,0.9482280575499243,-0.14429935387202653,0.24516407324343265
415,405.104602,1.81423056125641,-5.63228845596313,-0.98595583438873,0.9444966608164265,-0.14953136444091836,0.25008503271608973
416,405.112935,1.38017189502716,-4.51922225952148,-0.90334993600845,0.9423279275699541,-0.1473321598403306,0.25351178889371934
417,405.121268,0.84401470422745,-4.17957735061646,-0.90885710716248,0.9458672270482897,-0.1476060492651806,0.24873818670000306
418,405.129601,0.34056687355042,-4.29596853256226,-0.97399413585663,0.9455751886173174,-0.14014595625351836,0.24889442385459384
419,405.137934,0.4448424577713,-4.11692523956299,-0.86290526390076,0.943837749714754,-0.13394290087174385,0.249277499257302
420,405.14626699999997,1.11975204944611,-3.10129475593567,-0.59779793024063,0.9449639612314652,-0.1259659261119612,0.25485286907273874
421,405.15459999999996,2.38791275024414,-1.50831985473633,-0.63563001155853,0.953557637273049,-0.12370549902623978,0.25873408025624794
422,405.162933,3.3625602722168,-1.01857578754425,-0.760089635849,0.9672467562617091,-0.12343085542017142,0.2593507572096224
423,405.171266,4.02865839004517,-2.1277232170105,-0.91364687681198,0.9695147494880519,-0.12544468957550714,0.2523063640205224
424,405.179599,3.67200589179993,-3.78514409065247,-1.31240952014923,0.9660721798332368,-0.1293942514730959,0.24800913674490813
425,405.187932,3.14862966537476,-4.8158860206604,-1.30218935012817,0.9563704899379183,-0.13481902832887652,0.24602629700485507
426,405.196265,2.69267082214355,-4.53282356262207,-1.23490071296692,0.9436178207397459,-0.13784542375681325,0.24958827057663263
427,405.204598,2.37871670722961,-3.02742290496826,-1.30408453941345,0.9403073057836417,-0.14648169887309181,0.24888880398808674
428,405.21293099999997,2.11419916152954,-1.67468428611755,-1.14932358264923,0.9489616082639112,-0.1460843670124908,0.24413695140760816
429,405.22126399999996,2.16865491867065,-2.17362380027771,-0.94671505689621,0.9519243240356449,-0.15325136330662958,0.23460154630699898
430,405.22959699999996,2.04626965522766,-3.13246703147888,-0.87978476285934,0.9527409806543468,-0.1597886182823959,0.2245168296658265
431,405.23793,1.88710296154022,-3.50720286369324,-0.61918562650681,0.954258587895607,-0.1626046214784898,0.22412210094685406
432,405.246263,1.69363880157471,-3.22519063949585,-0.52113443613052,0.95705577305385,-0.16150920974965,0.22761977448755408
433,405.254596,1.50373494625092,-2.72538042068481,-0.60340738296509,0.9550292151314868,-0.16257376086955203,0.24071683689039589
434,405.262929,1.35245716571808,-1.79571139812469,-0.7848584651947,0.9571478318194948,-0.16560022928276835,0.24585565742181226
435,405.271262,1.24805355072021,-1.1797149181366,-0.92991203069687,0.9632429784658,-0.16825533643060817,0.2514621676230918
436,405.279595,1.26536881923676,-1.31641805171967,-1.22788238525391,0.9682550235670437,-0.17385952326716222,0.25478304648885913
437,405.28792799999997,0.95315682888031,-1.99232625961304,-1.37554848194122,0.9716453357618683,-0.1778723512377061,0.2568509140793153
438,405.29626099999996,0.09308212250471,-2.73506212234497,-1.5327684879303,0.9721707324592438,-0.1835301335977051,0.2584815511898122
439,405.304594,-0.81249630451202,-3.28136277198792,-1.45910203456879,0.9742867216771959,-0.18624642673803876,0.25867919532620204
440,405.312927,-1.92671549320221,-3.93017148971558,-1.61811530590057,0.9738392732581315,-0.18631309879069385,0.2610194926359214
441,405.32126,-3.19992256164551,-4.99818277359009,-1.79439258575439,0.9725110384882714,-0.185483706240751,0.2601099987419286
442,405.329593,-4.05728244781494,-6.45850229263306,-1.9745888710022,0.9669113159179683,-0.18551996776035815,0.2528999532972061
443,405.337926,-4.86464309692383,-7.4599404335022,-2.12740325927734,0.9603986934739713,-0.1838470478447112,0.24654804443826528
444,405.346259,-5.64887380599976,-7.57935428619385,-2.02574014663696,0.9541577708964448,-0.18246586225470712,0.24275580231024282
445,405.35459199999997,-6.24148559570312,-6.95134592056274,-2.09822869300842,0.9464435188137754,-0.18355204134571326,0.24214126625839588
446,405.36292499999996,-6.93857669830322,-6.17226266860962,-1.95975828170776,0.9406451789700254,-0.18191808340500815,0.24557609947360304
447,405.37125799999995,-7.22955465316772,-4.98230266571045,-1.78973066806793,0.93471283815345,-0.18274601624936426,0.24517633477035813
448,405.379591,-7.71304750442505,-3.84994769096375,-1.59165561199188,0.9349449313416774,-0.18428218607999794,0.24736180597422042
449,405.387924,-8.18183994293213,-3.08641314506531,-1.12183952331543,0.9423661718563151,-0.18270435381908776,0.2462099279676163
450,405.396257,-7.97707939147949,-3.14294338226318,-0.7213608622551,0.9461359101898815,-0.17661476621822447,0.23943134716578876
451,405.40459,-7.66612243652344,-3.95240473747253,-0.49803033471107,0.9510256319629896,-0.17146020519490102,0.23001072358111935
452,405.412923,-7.6269588470459,-4.1489429473877,-0.23635536432266,0.9516128228635203,-0.1685862881796704,0.23234729864159384
453,405.42125599999997,-7.37137937545776,-3.82033753395081,-0.04273734614253,0.952146004657356,-0.16146429947444385,0.23517379955369588
454,405.42958899999996,-7.40252828598022,-2.93446969985962,-0.2150187343359,0.958146367754255,-0.15961402533005714,0.24212063575277548
455,405.43792199999996,-7.46784448623657,-2.77435517311096,-0.43220189213753,0.9648408695143093,-0.15413072644447753,0.24080006443724383
456,405.446255,-7.43595266342163,-3.36906576156616,-0.6664183139801,0.9673961328000438,-0.1501745228864704,0.23445158588642956
457,405.454588,-7.01731538772583,-3.83276104927063,-0.86180394887924,0.9683015395183948,-0.14485405415904795,0.23506617059513057
458,405.462921,-6.46742820739746,-4.88565921783447,-0.93836468458176,0.9677452943762959,-0.13979265884477243,0.23415273549605406
459,405.471254,-5.78952217102051,-5.65444564819336,-0.84428375959396,0.96600308710215,-0.1325102606598214,0.23411843241477448
460,405.479587,-4.37889432907104,-5.9934229850769,-0.63824266195297,0.9572097233363561,-0.12383788215870714,0.2405707690180561
461,405.48792,-2.46423077583313,-5.73933124542236,-0.62425744533539,0.9537865191089867,-0.11633094476193774,0.24917490628300915
462,405.49625299999997,-1.08641505241394,-5.20491552352905,-0.6290984749794,0.9535275673379703,-0.11531237436800611,0.2544685042634306
463,405.50458599999996,0.44845405220985,-4.97620582580566,-0.53711771965027,0.9557929330942582,-0.11271194535858774,0.25679989736907344
464,405.51291899999995,1.47018003463745,-4.85983991622925,-0.3936779499054,0.9595826207375041,-0.11190639466655511,0.25977083614894286
465,405.521252,2.55238175392151,-4.72979688644409,-0.17938929796219,0.9632187473530673,-0.10679962683697142,0.2615808467475734
466,405.529585,3.76265382766724,-4.09305191040039,-0.36327385902405,0.9702517061817396,-0.10630128334979591,0.2658577354586857
467,405.537918,5.06024551391602,-3.79408264160156,-0.55053955316544,0.9818282419321489,-0.10694831001515306,0.2685962161239316
468,405.546251,6.29034471511841,-4.82500553131104,-0.81134390830994,0.987439739460848,-0.11110856824991631,0.267036447719652
469,405.554584,7.43783521652222,-6.60306787490845,-1.04433071613312,0.9853220959098969,-0.11321334206328061,0.2661430835723877
470,405.56291699999997,8.67502975463867,-8.13503074645996,-0.80204582214355,0.9744531281140387,-0.1199098265900908,0.26447099082323977
471,405.57124999999996,9.39799118041992,-9.20444965362549,-0.4298709332943,0.9603655095003091,-0.12775497777121428,0.2689357923001663
472,405.57958299999996,9.38710689544678,-9.86045742034912,-0.21832297742367,0.9480598994663785,-0.13098172995508978,0.26612712412464384
473,405.587916,9.49471282958984,-9.76750373840332,0.20099492371082,0.9406739838269295,-0.13629604359062344,0.2589018490849704
474,405.596249,9.78097629547119,-9.28231811523438,0.23211622238159,0.9345434149917295,-0.1407175283042755,0.25530479392226835
475,405.604582,10.21114158630371,-8.30905342102051,0.10806646943092,0.9383968431122448,-0.14042057553116122,0.25499976411157754
476,405.612915,10.55890464782715,-8.06973838806152,0.10934717208147,0.9435742241995673,-0.14915051508922958,0.2520365617713153
477,405.621248,10.8472957611084,-8.30226612091064,0.36443933844566,0.9461780470244734,-0.15193363841699078,0.24849577825896632
478,405.629581,11.27446746826172,-8.57915782928467,0.70974498987198,0.942734504232601,-0.1532976481379296,0.2475249524019204
479,405.63791399999997,11.5226936340332,-8.14504623413086,0.90203106403351,0.9414096754424427,-0.15582428902995815,0.2589449590566204
480,405.64624699999996,11.85585784912109,-7.62325859069824,1.03286862373352,0.9410961306824979,-0.15888694597750305,0.2627055012449928
481,405.65458,11.90662670135498,-7.31081771850586,1.02677249908447,0.9464048852725908,-0.1606626170022143,0.26915966248025713
482,405.662913,11.60778617858887,-7.65335702896118,0.66763526201248,0.9519033042752011,-0.16187148434775203,0.2636683473781663
483,405.671246,11.34372711181641,-7.96579790115356,0.5710951089859,0.9568813868931357,-0.16215594447388978,0.25942624831686223
484,405.679579,10.4705867767334,-8.28448963165283,0.37816858291626,0.9602069854736326,-0.16326238914411936,0.2609380653926306
485,405.687912,9.98624801635742,-8.7114782333374,0.12064305692911,0.9606041227068225,-0.16379317458795,0.2600193753534439
486,405.696245,9.82311058044434,-9.12650489807129,0.13578106462955,0.959997663692552,-0.16178660246790713,0.2615495117343204
487,405.70457799999997,9.32609272003174,-9.98245620727539,0.23201376199722,0.956948533350107,-0.16080687240678468,0.26405057128594794
488,405.71291099999996,8.61639881134033,-10.37363815307617,0.38636514544487,0.9520616336744662,-0.15916324391657038,0.2630609882121184
489,405.72124399999996,8.37916088104248,-9.98458385467529,0.50145000219345,0.9435826904919684,-0.15716844675492245,0.2643235119021673
490,405.729577,8.08416080474854,-8.84649085998535,0.63018709421158,0.940378442102549,-0.157373948973052,0.2659796208751449
491,405.73791,7.62177324295044,-7.70473766326904,0.60006475448608,0.93766484941755,-0.15477136689789486,0.26402614554580406
492,405.746243,7.47902488708496,-7.22493076324463,0.47176304459572,0.9365521645059387,-0.15277338271238367,0.2596612122594092
493,405.754576,7.92896413803101,-7.59216260910034,0.56809818744659,0.9391559873308459,-0.1494568829633755,0.2543925265876612
494,405.762909,9.20165729522705,-8.01753711700439,0.77024567127228,0.9395826106168785,-0.14632369790758365,0.24600622605304287
495,405.771242,10.52317428588867,-8.00721549987793,0.95236307382584,0.9372344308969927,-0.14327243882782653,0.2389539017969245
496,405.77957499999997,11.41285991668701,-7.39572811126709,1.11767745018005,0.936707963748854,-0.13684710677789183,0.23826277985864794
497,405.78790799999996,13.01889705657959,-6.50775766372681,1.28854990005493,0.9402001633936041,-0.13489998116785204,0.24424270707733775
498,405.796241,13.52152824401855,-6.05310726165771,1.28952348232269,0.9415051401877887,-0.13685643672943162,0.2519430919569367
499,405.804574,13.27173614501953,-4.96731853485107,1.25863254070282,0.943304275979801,-0.13547953294247958,0.246818746839251
500,405.812907,13.43727970123291,-5.50662565231323,1.24449336528778,0.9483201163155693,-0.13692385079909386,0.23932894881890712
501,405.82124,13.70097923278809,-6.46562337875366,1.35932207107544,0.9474348535343091,-0.13636435781206427,0.23412485511935507
502,405.829573,14.47238063812256,-7.41547679901123,1.29879570007324,0.943361885693608,-0.13739126069205101,0.23448024477277446
503,405.837906,15.53004169464111,-7.90685939788818,1.41936182975769,0.9371676736948439,-0.13929862148907754,0.2358150968746265
504,405.84623899999997,16.15229034423828,-7.92361307144165,1.46805477142334,0.9265259334019256,-0.1430075022639061,0.235230119860902
505,405.85457199999996,16.80644989013672,-7.98972225189209,1.51282846927643,0.9213433946881978,-0.14882513454982244,0.237506263110102
506,405.86290499999996,16.78736877441406,-7.64743947982788,1.57770919799805,0.9149209820494357,-0.1532756430762153,0.2397693663227316
507,405.871238,16.84535789489746,-6.88195657730103,1.1234405040741,0.9067987909122387,-0.15510718433224388,0.24111708816216937
508,405.879571,17.05360412597656,-5.61891937255859,0.83843100070953,0.9042006122822662,-0.15676002113186632,0.25676571592992653
509,405.887904,17.54168510437012,-4.21997213363647,0.06931214034557,0.9043967967130703,-0.15600159460184487,0.2631081367025571
510,405.896237,18.24889183044434,-3.24437689781189,-0.73706257343292,0.9067091649892376,-0.1605010032653806,0.27547695198837546
511,405.90457,18.53869247436523,-2.28648066520691,-1.55753803253174,0.9143147176625774,-0.16394499613314284,0.28867680199292245
512,405.912903,19.39466857910156,-1.8855414390564,-2.55324053764343,0.9231871974711521,-0.16810681138719794,0.30424427013007954
513,405.92123599999996,20.04414558410645,-2.70862936973572,-3.80736517906189,0.9338290350777765,-0.1806656316835051,0.31194606605841224
514,405.92956899999996,20.703125,-4.38895034790039,-5.60528135299683,0.9409161003268489,-0.18819740840366936,0.31489182491691736
515,405.937902,20.96395492553711,-7.53235578536987,-7.4990439414978,0.940958431788853,-0.18967707546389795,0.3150976920614439
516,405.946235,21.12074089050293,-11.19122505187988,-9.81831359863281,0.9265766338426233,-0.19106199546736122,0.31290428979056223
517,405.954568,20.50589752197266,-14.14762210845947,-12.4933385848999,0.8998841655497654,-0.1905174036415255,0.30595159044071124
518,405.962901,19.71744537353516,-15.57851219177246,-15.80244541168213,0.8691925905188733,-0.1785769511242306,0.28904311510981323
519,405.971234,19.06704711914062,-14.55417346954346,-19.51541328430176,0.8317499744648835,-0.18444598937521223,0.2744085691413102
520,405.979567,16.38282775878906,-10.32339096069336,-23.93873977661133,0.7979578874549091,-0.19471425182965305,0.2729016664076826
521,405.98789999999997,13.49456596374512,-1.45448017120361,-28.39470291137695,0.7517739218108509,-0.19670331964687446,0.27069636753627246
522,405.99623299999996,14.84884834289551,13.45621204376221,-31.92820167541504,0.7456015567390285,-0.19756629758951633,0.2465982826388612
523,406.00456599999995,19.24360275268555,31.3711109161377,-32.1170539855957,0.7884546688624785,-0.2134224589990112,0.19533214520434897
524,406.012899,23.54017066955566,46.10588455200195,-29.86769104003906,0.8867661807001856,-0.23111898071911838,0.14690002616570916
525,406.021232,23.8322582244873,50.55497741699219,-27.51940155029297,1.000174405623455,-0.23028818928465508,0.12510480929394183
526,406.029565,22.61211776733398,38.58025741577148,-25.45844078063965,1.0753534278091121,-0.20310235266782753,0.10903593228787754
527,406.037898,23.12028884887695,23.23807716369629,-23.54339599609375,1.0852201617493917,-0.16458727875534385,0.10191300085612755
528,406.046231,25.49684906005859,12.05083179473877,-22.2996654510498,1.0437163528130977,-0.12934823425448672,0.12840730803353467
529,406.05456399999997,26.9081916809082,9.09420204162598,-21.0295238494873,1.0121339681197183,-0.10660794316505917,0.15081496871247552
530,406.06289699999996,29.22400283813477,13.61232757568359,-18.94718742370605,0.9945427641576653,-0.09685352748754081,0.15211199011121426
531,406.07122999999996,30.33595085144043,17.75436401367188,-17.18011856079102,1.0051130761905591,-0.11030265263148673,0.15888205596378877
532,406.079563,29.894775390625,25.93366813659668,-16.16843223571777,1.0687512767558192,-0.14746060176771528,0.1411216234674255
533,406.087896,29.85551834106445,30.23828506469727,-14.04168510437012,1.143941003449109,-0.170677596209001,0.17217093584488874
534,406.096229,27.3361759185791,16.39029502868652,-9.41345691680908,1.1913422175816122,-0.19595519620545102,0.1951907848825255
535,406.104562,22.54681587219238,-1.65829217433929,-5.30413436889648,1.1582075819677233,-0.2048407525432357,0.18312480984901938
536,406.112895,17.84362602233887,-13.4780101776123,-1.52572536468506,1.0878357595326948,-0.21029501545185916,0.17002440228754181
537,406.121228,14.82360458374023,-17.3663272857666,2.0283408164978,1.0334381765248826,-0.22131961219164792,0.1839294360608469
538,406.12956099999997,14.39356517791748,-11.27674674987793,4.09540987014771,0.9923971915731622,-0.22854583603995204,0.21211570622969692
539,406.13789399999996,11.23314952850342,-8.31476497650146,4.76811599731445,0.9613944073112642,-0.2365439765307367,0.21533700884604898
540,406.14622699999995,8.08431529998779,-8.74703311920166,4.17617130279541,0.9442943456221601,-0.23088759305525816,0.17668535514753672
541,406.15456,7.10103464126587,-9.76371192932129,3.54675245285034,0.9419988126170876,-0.22925520429805812,0.15480107190657652
542,406.162893,7.09452962875366,-10.83928108215332,2.69336271286011,0.9425887283013794,-0.2163705777148806,0.14420582323658265
543,406.171226,6.72788667678833,-11.52015686035156,1.7775000333786,0.9460684717917929,-0.21268581857486632,0.14639259601125917
544,406.179559,6.68680095672607,-11.3985652923584,1.07513201236725,0.9480399501566978,-0.20149811190001835,0.14003197757565203
545,406.187892,5.91699075698853,-10.55539608001709,0.2337042838335,0.9414460707683948,-0.1925791283043061,0.14570262967323774
546,406.19622499999997,4.68125820159912,-9.80361843109131,-1.13149619102478,0.9351027741724132,-0.17795779267135917,0.1379665428278398
547,406.20455799999996,6.39351940155029,-6.25061750411987,-1.63502085208893,0.9399365405647121,-0.1768470661980765,0.1348812726079204
548,406.21289099999996,5.5610294342041,-3.08323693275452,-1.93319582939148,0.9460746998689612,-0.18399498900588673,0.1322667817680204
549,406.221224,5.02400207519531,-2.93119072914124,-2.36699867248535,0.954595001376405,-0.1840459935519163,0.1126542261668612
550,406.229557,4.97779369354248,-4.74088764190674,-2.6212203502655,0.9510971575367203,-0.19692877117468366,0.0997553005510449
551,406.23789,3.28295087814331,-4.83463525772095,-2.53902387619019,0.9447323546117663,-0.21600363205890305,0.0851988123387704
552,406.246223,4.43008422851562,-2.8768630027771,-2.14704918861389,0.9492797267680265,-0.23024690394498876,0.08183609466163469
553,406.254556,4.92251825332642,-3.46532416343689,-1.74746704101562,0.942626388705506,-0.23612735222797038,0.08072241836664591
554,406.262889,3.01602482795715,-5.71886396408081,-2.20316982269287,0.9233759860603172,-0.23152054572591937,0.06852074545256938
555,406.27122199999997,3.87766242027283,-5.42015171051025,-1.77064788341522,0.9087456489095876,-0.2298672831788357,0.0591854963983806
556,406.27955499999996,3.88301587104797,-2.80457949638367,-1.68494296073914,0.9002207736579734,-0.2447370607025765,0.06007620266505612
557,406.287888,2.02314019203186,-1.45045733451843,-1.38725423812866,0.9029251215409255,-0.24985306116999387,0.051646883390387754
558,406.296221,1.8227858543396,-1.22325909137726,-1.16115736961365,0.9002382901250101,-0.2540825337779765,0.05069698606218571
559,406.304554,0.67790639400482,-0.8456284403801,-2.08490920066833,0.8957096022002551,-0.253868662581152,0.03848414031826734
560,406.312887,0.85477268695831,0.4561767578125,-2.88809490203857,0.8880426445785837,-0.24663842454248572,0.03017732379387857
561,406.32122,0.48485186696053,2.14231061935425,-3.6151294708252,0.8862354317489939,-0.23673045391939082,0.024673996531233672
562,406.329553,1.16368043422699,4.06737422943115,-4.4991021156311,0.8925628662109376,-0.22482249201560509,0.016190908393081634
563,406.33788599999997,2.22569799423218,5.56642246246338,-5.16781377792358,0.9114489263417765,-0.2173921040126255,0.01394738348162857
564,406.34621899999996,2.18837809562683,6.75825262069702,-5.77863645553589,0.9319203240530826,-0.20546504429408466,0.01119220819400306
565,406.35455199999996,2.02744364738464,6.73676204681396,-6.89749145507812,0.950065437628298,-0.19714672954714998,0.0105689374768
566,406.362885,2.26798725128174,5.92614841461182,-8.01171112060547,0.9717616256402459,-0.19187832365230612,0.00525251639132551
567,406.371218,3.38791847229004,4.03233432769775,-8.41129302978516,0.9814858923152999,-0.18694049241591426,0.009296603348790816
568,406.379551,2.40632915496826,0.742800116539,-8.28880500793457,0.9856986026374662,-0.17496663696911835,0.01416842700267347
569,406.387884,3.72674298286438,-2.30192565917969,-7.08570384979248,0.986657045325454,-0.15970970903124082,0.016522270684339795
570,406.396217,4.77818298339844,-5.74578666687012,-5.78872871398926,0.982024329049247,-0.15112808772495817,0.022457672321066324
571,406.40455,6.38491153717041,-6.98310708999634,-4.84312725067139,0.9838910978667591,-0.13663435468868365,0.041212314853863265
572,406.41288299999997,7.64710378646851,-7.7198486328125,-3.82237410545349,0.9864675755403479,-0.12379005247232855,0.04523041905189081
573,406.42121599999996,8.32298755645752,-7.86062479019165,-2.45411252975464,0.993529923108159,-0.11040792173268876,0.04492828432394489
574,406.429549,10.6652307510376,-7.19580841064453,-1.78763067722321,1.009609553278709,-0.11755353333998672,0.03888102818508571
575,406.437882,10.44500160217285,-9.19000625610352,-1.21320569515228,1.0118614897436018,-0.12538332111981426,0.03372287263675612
576,406.446215,13.03972244262695,-9.20422077178955,0.00353476498276,1.0221502732257448,-0.13096377557637756,0.026523026884818363
577,406.454548,15.21683216094971,-7.69854021072388,1.49115872383118,1.0313292912074499,-0.14455430361689386,0.02262037475498367
578,406.462881,14.75175189971924,-5.702805519104,2.7977921962738,1.0587951115199499,-0.1677509594936755,0.042543076739019386
579,406.471214,17.96916198730469,-5.99521923065186,4.80180025100708,1.0808569071244223,-0.16511776009384488,0.030319882290704078
580,406.47954699999997,19.82660484313965,-8.65702629089355,6.59246635437012,1.1083513376664142,-0.1732614210673745,0.0031382181890765304
581,406.48787999999996,22.1163158416748,-13.40865135192871,8.25634384155273,1.1300250462123325,-0.18258598386024896,0.022865059424419385
582,406.49621299999995,21.54509353637695,-16.00024795532227,8.5100269317627,1.1248457188508947,-0.18361848227831734,0.02624399807988367
583,406.504546,22.78008270263672,-12.6537971496582,8.91301536560059,1.125206850012954,-0.18039630383861324,0.02218706267220612
584,406.512879,25.3384895324707,-8.20501327514648,8.8353796005249,1.1335462453413978,-0.1688990422657561,0.0005517737008632653
585,406.521212,28.54477882385254,-6.08661222457886,8.73335838317871,1.148931834162498,-0.18314865170692957,-0.02881670788842755
586,406.529545,30.24454498291016,-7.48776483535767,8.1317834854126,1.1649909311411337,-0.19200522072461224,-0.05886000029894796
587,406.537878,34.22386169433594,-11.33956432342529,8.00850486755371,1.159892082214355,-0.21200094904218367,-0.07552641995099081
588,406.54621099999997,36.54674911499023,-14.71501445770264,7.86286354064941,1.1442135791389305,-0.2468991279602051,-0.06295576995732856
589,406.55454399999996,34.64393615722656,-16.69294738769531,7.86063432693481,1.1144954331067143,-0.26169443617061733,0.01556143620792653
590,406.56287699999996,30.67403221130371,-17.37372016906738,9.37861061096191,1.0779358416187519,-0.2804549372926051,0.2609847516429663
591,406.57121,24.24232864379883,-10.61956882476807,13.4068603515625,1.0215925683780591,-0.34810333835835405,0.6078434963615571
592,406.579543,24.20091819763184,13.16827964782715,20.93002700805664,1.027394119574099,-0.4518023315741092,0.6440005010488081
593,406.587876,28.89458274841309,39.5869255065918,28.05079460144043,1.1150235545878509,-0.623794526469951,0.34187784000318877
594,406.596209,5.33345890045166,40.09124374389648,30.39117240905762,1.204260903961804,-0.8119032820876765,0.1517796516418459
595,406.604542,-33.42447280883789,9.194899559021,30.34670066833496,1.2713658079809071,-0.7253856561621836,0.21065381108498057
596,406.612875,-38.53456878662109,-34.5639762878418,25.51346778869629,1.1914549068528775,-0.408617720312002,0.1366761144326653
597,406.62120799999997,-20.73388671875,-43.27744674682617,18.54607963562012,0.9957634672826653,-0.352249413120503,0.04089816188325714
598,406.62954099999996,-34.4727668762207,-8.05489253997803,11.04207801818848,0.9899527685982836,-0.3360257586654347,0.18856592324315305
599,406.63787399999995,-34.63584518432617,6.69716835021973,4.42447900772095,1.1226045842073398,-0.10810432385425202,0.25829198409099996
600,406.646207,-16.68418312072754,5.15047311782837,0.14008429646492,1.1170489447457448,-0.1331752781965296,0.26628080679445815
601,406.65454,-19.45316505432129,13.38468742370605,-3.51700282096863,1.0729866611714265,-0.23014713306816223,0.3308357511247908
602,406.662873,-24.37367057800293,19.93607521057129,-4.07841730117798,1.0661841411979827,-0.22376710054825713,0.38297918378090406
603,406.671206,-28.20615196228027,17.43701934814453,-2.665611743927,1.0334670786954918,-0.23454571256832243,0.45877680486562344
604,406.679539,-36.63067245483398,15.98093509674072,0.67391139268875,0.9867996099043866,-0.22412134676563467,0.5097963858623897
605,406.68787199999997,-34.7965202331543,17.93671417236328,9.52730560302734,0.9889286391589102,-0.21363238899075304,0.4678416738704754
606,406.69620499999996,-30.4173698425293,14.04039764404297,21.13164520263672,1.0103057355296856,-0.26675822783489594,0.43145048375032347
607,406.70453799999996,-28.58205986022949,6.05732774734497,31.18214988708496,1.0278792283972917,-0.3012426775328969,0.4174851884647296
608,406.712871,-24.76676940917969,-8.5006628036499,37.72112655639648,1.0170592093954285,-0.30610928730088877,0.41265604447345305
609,406.721204,-25.96278762817383,-20.54332542419434,38.23478317260742,0.9634385790143694,-0.2794566932989622,0.3905686553643673
610,406.729537,-28.82687950134277,-27.47094917297363,34.32699966430664,0.9174603832011315,-0.22559051610985612,0.3649018492017469
611,406.73787,-30.24006462097168,-28.96233749389648,28.66400527954102,0.8670524675018927,-0.15035870123882653,0.3340381262253745
612,406.746203,-27.2504768371582,-22.01272773742676,22.9686279296875,0.8112541023565795,-0.10362322233161123,0.32568897519792855
613,406.754536,-27.85470199584961,-11.62513446807861,18.03851127624512,0.7994444516240337,-0.10483162743704692,0.34727429857059383
614,406.76286899999997,-28.71918106079102,-4.04800081253052,11.91019439697266,0.7955879094649336,-0.11322203947573264,0.3392680810422316
615,406.77120199999996,-29.58914184570312,1.03949058055878,5.94066333770752,0.8347188210000794,-0.14843415240852245,0.3386460031781877
616,406.779535,-33.09860610961914,0.20369738340378,0.76432949304581,0.8890011845802775,-0.17565965652465815,0.3185588972909112
617,406.787868,-33.68209838867188,-0.41164681315422,-2.1884183883667,0.8946071352277479,-0.18277870149028572,0.30859764741391527
618,406.796201,-33.55643463134766,2.96148228645325,-3.61756587028503,0.9178338732038223,-0.16966330761812143,0.32275175561710306
619,406.804534,-32.13988494873047,2.96209645271301,-3.82847309112549,0.9477468412749622,-0.14888433777556123,0.33332445183578774
620,406.812867,-28.94770050048828,0.74636083841324,-2.12033462524414,0.9493286755620214,-0.15049574326495713,0.3311521909674816
621,406.8212,-26.69560050964355,-3.83658003807068,-0.73872792720795,0.9336340184114419,-0.16809957368033265,0.32264872473113365
622,406.82953299999997,-28.21944046020508,-7.95939779281616,-0.51854777336121,0.9121948358963948,-0.17806390110327244,0.3271692626330316
623,406.83786599999996,-29.12992668151855,-10.51083564758301,-1.21392357349396,0.8711096705222612,-0.15739071125886836,0.30898884851105407
624,406.84619899999996,-28.75690650939941,-10.02093696594238,-2.46274662017822,0.8169799921463948,-0.1946677115498755,0.31887205279603265
625,406.854532,-29.30830192565918,-8.32091808319092,-2.24750995635986,0.7448078661548847,-0.2143338505102663,0.30863455363682346
626,406.862865,-29.44784927368164,1.02619659900665,-0.24913704395294,0.6851745138362958,-0.22292224728331222,0.30944661218292857
627,406.871198,-29.25241661071777,12.86671924591064,2.24155449867249,0.6502178250526898,-0.22251394330238777,0.3078633911755622
628,406.879531,-27.62763786315918,25.22117614746094,4.23813629150391,0.6537281250467102,-0.23890704524760306,0.2957608505171173
629,406.887864,-28.94574165344238,35.89694595336914,4.80365180969238,0.7026250508366796,-0.2651395846386347,0.2809039427309622
630,406.896197,-34.89080047607422,43.78449630737305,1.83078253269196,0.783081881853999,-0.27062600972701123,0.27418248507441323
631,406.90452999999997,-38.50467300415039,42.33524322509766,1.14588177204132,0.8230233679012378,-0.24162557660316938,0.2774898373350806
632,406.91286299999996,-40.32497406005859,39.31694793701172,0.99811261892319,0.8570943559919081,-0.22096962344889692,0.2897127793759714
633,406.921196,-44.11564254760742,26.83267593383789,-1.55003619194031,0.8524558008933549,-0.19822602369347345,0.29462366688008157
634,406.929529,-41.85147476196289,21.93552398681641,-2.65275621414185,0.8696374114678826,-0.15466002785429694,0.2503187072520357
635,406.937862,-37.94566345214844,16.73568725585938,-3.79712414741516,0.8792185296817703,-0.14268365441536426,0.23322570080659794
636,406.946195,-37.3038330078125,8.74472332000732,-2.53456997871399,0.8483998629511622,-0.14523401552317142,0.21341126792284895
637,406.954528,-36.33071899414062,5.25055265426636,-0.67799669504166,0.8565740196072327,-0.14187661968931836,0.20180402969827446
638,406.962861,-34.7698860168457,4.3225474357605,1.14485514163971,0.8777296299837071,-0.11537071393460611,0.18489653966864794
639,406.97119399999997,-30.38174819946289,0.21719609200954,3.58051466941833,0.888415745326451,-0.0956323499582255,0.16795924731663264
640,406.97952699999996,-27.27847480773926,-3.80107808113098,5.65542125701904,0.8913771960200091,-0.09263873708491428,0.16132685602927652
641,406.98785999999996,-21.33972930908203,-9.62411785125732,7.41788530349731,0.8748135274770306,-0.07008666894873775,0.1556180934516755
642,406.996193,-17.73879814147949,-10.4261999130249,8.58207702636719,0.8551540180128449,-0.10011315953974795,0.1728199087843602
643,407.004526,-18.66536903381348,-7.82456254959106,8.33103275299072,0.8705926428035815,-0.08539695520790305,0.1398442472730367
644,407.012859,-14.47369861602783,-7.66024684906006,8.78389263153076,0.8919700311154735,-0.06452117039232856,0.11905760181193469
645,407.021192,-10.13502979278564,-8.01930522918701,9.62045097351074,0.9135985861019214,-0.08335996647270408,0.13447385661456018
646,407.029525,-10.37291049957275,-7.00472688674927,9.38682556152344,0.9297301817913448,-0.09094035138889285,0.15885438237871427
647,407.03785799999997,-10.39060878753662,-8.07519721984863,8.89720916748047,0.9445631260774571,-0.07164231368473571,0.16610130971791834
648,407.04619099999996,-6.46381759643555,-12.42482757568359,8.66258239746094,0.9506587592922907,-0.07545919442663367,0.17039881677043672
649,407.05452399999996,-4.89258909225464,-16.8430290222168,8.38151836395264,0.9661323197033937,-0.10010503384531734,0.1617317905231398
650,407.062857,-3.55214548110962,-19.4183406829834,8.58484649658203,0.98222557379275,-0.12540825775691428,0.11201109204973468
651,407.07119,-3.10033655166626,-26.19452095031738,9.25186824798584,0.9810052599225723,-0.16353557304460203,0.0685984139539755
652,407.079523,-7.43442630767822,-35.85721206665039,10.16609954833984,0.9564996252254562,-0.1995055651178163,0.012303610541382652
653,407.087856,-12.39970874786377,-44.83800888061523,11.27866172790527,0.9045671930118478,-0.20936610747356835,-0.012978786716656122
654,407.096189,-19.84902191162109,-48.64719390869141,11.84912490844727,0.8410020750396101,-0.20921789869970203,-0.03334018648887142
655,407.104522,-24.12317085266113,-44.49154663085938,12.49759960174561,0.7832512563588663,-0.21986265571749897,-0.019292270346563264
656,407.11285499999997,-23.72690010070801,-31.9489688873291,13.22449588775635,0.7546838935540643,-0.24917439538605407,0.022594735634570408
657,407.12118799999996,-26.09282112121582,-16.36343765258789,11.75625133514404,0.7504791142989173,-0.24420983937321836,0.06595658404486529
658,407.12952099999995,-25.98969078063965,2.2051694393158,10.19839000701904,0.7903759333552143,-0.23162019496061326,0.05656352456735101
659,407.137854,-24.06855392456055,24.74617958068848,8.01167964935303,0.8472768627867407,-0.22135771050745098,0.06363263543771223
660,407.146187,-28.70120620727539,40.89032745361328,4.14861869812012,0.9465418056565887,-0.16288870451401732,0.05792361132952653
661,407.15452,-29.52598190307617,48.58953094482422,-1.00437533855438,1.0676580545853591,-0.0828260000871153,0.039150638847934696
662,407.162853,-25.77430152893066,48.77538299560547,-5.65447235107422,1.1860039769386754,-0.03995081903983163,0.05074262314913265
663,407.171186,-21.86170387268066,41.30069351196289,-10.36900901794434,1.2930445768395245,-0.00410310467895204,0.08066272857237856
664,407.17951899999997,-16.50825119018555,28.26796340942383,-14.94022464752197,1.3518428802490234,0.030338940571765304,0.11360293748427448
665,407.18785199999996,-9.91620922088623,12.08604431152344,-17.11207008361816,1.3621228081839427,0.03728455122636326,0.1253431792161898
666,407.19618499999996,-4.00971698760986,0.28707158565521,-17.19636154174805,1.3437984427627254,0.005817696908298979,0.09560145893875407
667,407.204518,-0.71065431833267,-3.49022197723389,-16.01111602783203,1.3224386682315743,-0.04666584486864081,0.043056199745256124
668,407.212851,-0.9878516793251,-8.3394079208374,-15.19002628326416,1.307957221050652,-0.09174047075972244,-0.025125165679017347
669,407.221184,-3.60946989059448,-15.59141635894775,-13.7482271194458,1.2828184633838886,-0.13108980898954387,-0.12585944058943774
670,407.229517,-8.3138599395752,-20.59380340576172,-11.66538143157959,1.234983911319655,-0.16470353214108163,-0.18306052198215408
671,407.23785,-13.7299919128418,-17.04763793945312,-9.72397422790527,1.171476111120107,-0.1587233738023408,-0.1661888069036051
672,407.246183,-15.45848941802979,0.28548353910446,-12.15304756164551,1.1470614647378725,-0.1033875407004847,-0.05941147098735918
673,407.25451599999997,-8.40179634094238,23.03519630432129,-20.77991104125977,1.2062159363104377,0.0248053989240102,0.09250724802211836
674,407.26284899999996,21.65383148193359,29.28285598754883,-32.18564605712891,1.2644247132904674,0.038969261305672444,0.2649417458748326
675,407.27118199999995,40.00038528442383,19.66390228271484,-46.60077285766602,1.2691823803648652,-0.11701459787329897,0.43148113756763673
676,407.279515,38.7785530090332,5.62013244628906,-57.28167724609375,1.2174504143851141,-0.15482793048936527,0.5294201811965632
677,407.287848,41.08658218383789,-5.21438837051392,-56.94735336303711,1.0942452294485907,-0.05301470659217041,0.5902372574319643
678,407.296181,41.76432418823242,-4.48363494873047,-51.56937789916992,0.9104262566079898,0.07485347134726428,0.5650071221954969
679,407.304514,41.5022087097168,10.74911785125732,-50.18519973754883,0.8186076611888653,0.08481608361613979,0.4759675142716387
680,407.312847,42.72102737426758,24.84847259521484,-54.20123672485352,0.8280312285131335,-0.0657842171435449,0.46413455690656424
681,407.32117999999997,37.45561981201172,33.1219367980957,-62.16601943969727,0.861202746021504,-0.23800793959169997,0.5067134876640479
682,407.32951299999996,32.5304069519043,31.67753410339355,-70.32954406738281,0.8699582547557602,-0.32411027927787955,0.5609129399669418
683,407.33784599999996,29.31428527832031,21.31364250183105,-75.42560577392578,0.8287208907458244,-0.3265026880770316,0.6199513649453918
684,407.346179,23.22459411621094,16.07703971862793,-78.45407104492188,0.7818752892163336,-0.2808161171115173,0.621389466889051
685,407.354512,15.1280345916748,17.48536491394043,-78.49065399169922,0.7624132779179785,-0.1963325909205847,0.6019127612211265
686,407.362845,8.48448371887207,20.71871757507324,-77.58195495605469,0.7735581787265081,-0.1207977776624714,0.5555393744488152
687,407.371178,-1.37622225284576,22.00315093994141,-77.3283920288086,0.8089053387544591,-0.04916788972153979,0.47334028750049795
688,407.379511,-3.10929107666016,32.6226921081543,-72.30136108398438,0.9511672234048651,-0.04750639808421224,0.3643358483606459
689,407.387844,3.95370578765869,48.01778411865234,-60.45773315429688,1.1114166220840143,-0.07422479439754898,0.26648730647807245
690,407.39617699999997,18.87331962585449,54.9840087890625,-42.12104797363281,1.3066737505854387,-0.11881510822140408,0.1526068424691959
691,407.40450999999996,36.49751663208008,36.53530883789062,-23.4089527130127,1.4646134084584763,-0.22685184770700917,0.13735752932879386
692,407.412843,41.63546752929688,5.59578418731689,-9.34743118286133,1.484021556620695,-0.26827848687463873,0.13405201386432244
693,407.421176,45.98354339599609,-39.46751403808594,0.02715117670596,1.334921778464804,-0.23950885753242343,0.19922351350589693
694,407.429509,44.95000839233398,-61.68149948120117,2.75869297981262,1.016521064602599,-0.24490869775110405,0.2689155997062214
695,407.437842,39.14205169677734,-44.24529647827148,3.33096241950989,0.7171019729302857,-0.21029847008841426,0.3147908862756224
696,407.446175,39.47536087036133,-11.89572906494141,7.27237892150879,0.650972152242855,-0.23234014608422143,0.35855278676869895
697,407.454508,33.82218170166016,8.64285564422607,9.55624771118164,0.6964127871454979,-0.24134548342957754,0.40229558944702143
698,407.46284099999997,29.73149681091309,2.02610039710999,11.34847450256348,0.7075044087001254,-0.23943592090995916,0.38172352070711124
699,407.47117399999996,23.23135757446289,2.40916132926941,13.71348667144775,0.7012502514586153,-0.23059898493241326,0.3430092578031581
700,407.47950699999996,16.19376182556152,-1.97480726242065,15.39762020111084,0.6596980289537081,-0.1691411587656765,0.295458326534349
701,407.48784,11.46642112731934,-4.67908239364624,15.0771598815918,0.647326878138951,-0.12726186489572344,0.2333871199160204
702,407.496173,11.55171680450439,-5.26884984970093,16.2337703704834,0.6339162223193111,-0.10140213431144285,0.18587286375006837
703,407.504506,13.77785015106201,-2.93987488746643,17.17721939086914,0.6472021219681724,-0.054963863625818364,0.15530139816050612
704,407.512839,23.10892868041992,10.43575000762939,19.32511329650879,0.7268921209841357,0.006512017274389795,0.14529651525069284
705,407.521172,31.66228866577148,20.38915252685547,18.31863594055176,0.7776926488292459,0.014822779565441837,0.14891249792916428
706,407.529505,32.38653564453125,20.36520385742188,13.60527801513672,0.8161074774605888,0.005578842698311224,0.11750198140436324
707,407.53783799999997,33.59172821044922,11.69436073303223,8.75072956085205,0.8255682186204562,-0.01643300360562857,0.12714108642266733
708,407.54617099999996,29.85954475402832,4.94474315643311,5.02482652664185,0.8140163518944561,0.004331319383820408,0.11383447111869387
709,407.554504,31.47280120849609,6.31023788452148,4.6483473777771,0.7966021615631724,-0.04249807827326735,0.1275095404410847
710,407.562837,30.79020881652832,10.73523139953613,5.57822227478027,0.7868608649896112,-0.1336548279742806,0.1339097533907204
711,407.57117,25.00689125061035,16.91730690002441,4.75264835357666,0.8013864925929478,-0.21163563339077648,0.13403432709830101
712,407.579503,21.30309295654297,21.34798622131348,5.08783674240112,0.8507113554039776,-0.2563841245612316,0.11380347670341019
713,407.587836,24.0003776550293,20.34331703186035,4.77219200134277,0.907923348095952,-0.32130998008105205,0.1424759991314949
714,407.596169,23.08840179443359,8.26788234710693,2.75619578361511,0.933865041148906,-0.33477442605154895,0.1452470312313153
715,407.60450199999997,27.11137580871582,-5.15389394760132,0.91322481632233,0.9150815496639325,-0.33470808243264993,0.14095194485722756
716,407.61283499999996,23.52763748168945,-10.55514526367188,-2.82792854309082,0.8775221571630357,-0.36855342436809896,0.12325184685843367
717,407.62116799999995,19.28673553466797,-12.17734718322754,-7.01467943191528,0.8676842280796592,-0.3774799862686469,0.07995061120208469
718,407.629501,12.61083984375,-13.86683559417725,-11.07640647888184,0.8735702475722958,-0.38700004013217243,0.06463814146664693
719,407.637834,4.72805786132812,-20.33410453796387,-14.87049293518066,0.8740644065701235,-0.3680963905490173,0.07035861818157857
720,407.646167,0.26003593206406,-25.71863174438477,-16.94040870666504,0.863382962285256,-0.3351183813445418,0.08632001219963571
721,407.6545,-2.40616488456726,-27.37585258483887,-18.08964729309082,0.8599676404680521,-0.3099076601923724,0.10702033432162551
722,407.662833,-5.42990112304688,-20.81554985046387,-18.31107902526855,0.8836809469729051,-0.29244999496304286,0.12105151098601633
723,407.67116599999997,-6.96749925613403,-14.89847850799561,-19.49681091308594,0.9370371760154255,-0.26830597799651423,0.11927581563287855
724,407.67949899999996,-10.33974456787109,-15.72538566589355,-21.81067848205566,1.000371368563905,-0.2389108891389806,0.09385972606892448
725,407.68783199999996,-9.61627292633057,-22.9169750213623,-23.13058662414551,1.0358295635301233,-0.18684516147691324,0.04760320393406632
726,407.696165,-4.0509614944458,-32.25147247314453,-23.36812019348145,1.0470644308596244,-0.15586343346809897,-0.005993786438995918
727,407.704498,4.16918516159058,-38.90901184082031,-23.79893112182617,1.0512532993238795,-0.12651900855862344,-0.050100465210116324
728,407.712831,10.75472736358643,-44.89015960693359,-23.64723587036133,1.055949658763652,-0.10977600302014999,-0.07314932589628265
729,407.721164,19.06619071960449,-51.66157913208008,-22.70323371887207,1.060890080977459,-0.07628578920753673,-0.09008135114397346
730,407.729497,29.24917602539062,-60.35369873046875,-21.16740226745605,1.0237959453037806,-0.03808881251179489,-0.09467667462874386
731,407.73783,40.1314582824707,-56.15026092529297,-18.12359809875488,0.9853835008582285,-0.031045958095667344,-0.08455378668648877
732,407.74616299999997,48.031982421875,-40.75149536132812,-13.96881008148193,0.9214722380346183,-0.037051916730646936,-0.06148046984964489
733,407.75449599999996,53.58053588867188,-15.02765560150146,-10.55425834655762,0.9021731785365509,-0.05199951784951327,-0.04942286987693979
734,407.76282899999995,58.43595123291016,22.84775924682617,-5.56311082839966,0.9836348708795041,-0.14297135022221732,-0.023036062413332652
735,407.771162,46.76000213623047,43.511962890625,-0.62523293495178,1.1380789231280888,-0.24581186625422244,0.07606795855930919
736,407.779495,29.74632835388184,35.74459457397461,3.59896039962769,1.2239481478321304,-0.25610483422571323,0.1237318710405
737,407.787828,20.25439643859863,22.13661956787109,8.63630771636963,1.2145967872775327,-0.3587522798654979,0.18156973683104183
738,407.796161,6.88995122909546,21.61377716064453,11.51365566253662,1.2091623033796042,-0.468542867777299,0.1917976384260214
739,407.804494,0.73697328567505,25.35246276855469,16.12849998474121,1.2461623366998162,-0.5396695039710224,0.14304673185153877
740,407.81282699999997,-1.97958505153656,23.85756683349609,20.31812477111816,1.3147130304453325,-0.5483013756421142,0.012372732922738775
741,407.82115999999996,3.73396873474121,11.17643547058105,24.29770851135254,1.3750987150231184,-0.4984784612850265,-0.16699366423548467
742,407.82949299999996,18.6003589630127,-14.74643707275391,26.47136497497559,1.3593022677363182,-0.4311190332685193,-0.32339417204564896
743,407.837826,34.05989074707031,-40.61894989013672,28.19935989379883,1.274512154715402,-0.3619092824507734,-0.36230773341898975
744,407.846159,45.73406219482422,-51.19265747070312,32.39581298828125,1.1996354862135286,-0.3513706946859551,-0.15803553620163266
745,407.854492,40.12118911743164,-42.59553146362305,40.49838256835938,1.137162811902104,-0.45887192901299895,0.331980135976052
746,407.862825,14.15615463256836,-19.40052795410156,49.48252868652344,1.0510073875894346,-0.5612571385441989,0.775248858393455
747,407.871158,-21.08753967285156,13.88451099395752,55.117919921875,0.9218531238789459,-0.5582828424414806,0.8582688351066744
748,407.879491,-49.83044052124023,60.25888061523438,62.1331787109375,0.8713103313835295,-0.6022778335882694,0.7811174587327602
749,407.88782399999997,-54.19275665283203,80.1247787475586,70.16475677490234,0.988862563152702,-0.623457285822654,0.5294518568077867
750,407.89615699999996,-35.53706359863281,49.98291397094727,71.38037872314453,1.0748441851868917,-0.6341380489115815,0.16992214991121837
751,407.90449,-53.5711669921875,13.29178524017334,64.91256713867188,1.0245405897802233,-0.5541068193863846,0.15253452622160613
752,407.912823,-71.73306274414062,2.12990379333496,58.14887237548828,0.9924377713884622,-0.14153227514150205,0.22547931087260306
753,407.921156,-60.83119583129883,15.59306049346924,58.54483795166016,0.9609257445043449,0.14416096161822856,0.33961896993676016
754,407.929489,-36.65356063842773,38.32244110107422,62.61737060546875,0.977540697370257,0.26732255001457345,0.42594943727765705
755,407.937822,-12.10998439788818,47.76122283935547,66.57562255859375,1.0450254167829245,0.21229717196250406,0.5005639426562255
756,407.946155,2.45705795288086,39.68058395385742,65.60897064208984,1.0659736516524336,0.08577448981148877,0.5568277592561683
757,407.95448799999997,8.80523204803467,19.88349151611328,59.78130722045898,1.0662182009949979,-0.04602802043058469,0.5467066472890428
758,407.96282099999996,15.60249519348145,4.88256072998047,55.19752883911133,1.0473670764845244,-0.17164479713050712,0.5125182015555244
759,407.97115399999996,22.84478378295898,3.71877431869507,51.67762756347656,1.0962777235070051,-0.33333824605357854,0.4866584952996704
760,407.979487,25.70407867431641,4.84521436691284,47.08830642700195,1.2061122972138072,-0.4904847242394275,0.4332367254763234
761,407.98782,16.32664108276367,-1.0806919336319,40.30391311645508,1.299901787115603,-0.5852310998099193,0.338983073526499
762,407.996153,2.01917219161987,-5.88357019424438,31.27639579772949,1.3045381039989232,-0.5811046580879051,0.27446654378151425
763,408.004486,-24.89225578308105,-9.26132297515869,16.77746772766113,1.233708225950903,-0.5505972979020102,0.3097519582631632
764,408.012819,-55.01710510253906,-34.48649215698242,1.97399401664734,1.2103917647381213,-0.3476240683575061,0.2888254000216112
765,408.021152,-53.65821838378906,-62.80469131469727,-2.17026901245117,1.0638710917258745,-0.19707314822138572,0.26431015559605203
766,408.02948499999997,-53.19175338745117,-71.81080627441406,-6.50023412704468,0.8345342169002612,-0.16063980910242856,0.30291992790844996
767,408.03781799999996,-53.87184906005859,-59.82767105102539,-10.76604461669922,0.6421749932425367,-0.09776923729448876,0.2932100879902745
768,408.046151,-49.47309875488281,-26.00185203552246,-12.08686637878418,0.5648901511211785,-0.06663971409505713,0.281641775248002
769,408.054484,-43.39291763305664,5.10668134689331,-10.97919178009033,0.6085363699465377,-0.07773585465489591,0.26233743648139796
770,408.062817,-39.44705200195312,9.95697402954102,-10.01983165740967,0.6995175809276347,-0.14022677528614896,0.25926327218814793
771,408.07115,-40.27215957641602,0.2887881398201,-8.85397148132324,0.704746489622155,-0.20155047883792754,0.2606145703062714
772,408.079483,-41.96680068969727,-8.32712459564209,-7.01376485824585,0.6298664151405806,-0.24105733754683467,0.2412441555334602
773,408.087816,-44.5784912109375,-2.17964720726013,-7.77271795272827,0.5752520658531969,-0.2563477292352796,0.2331653176521765
774,408.09614899999997,-46.63158798217773,9.07991886138916,-6.83031797409058,0.5703473091125489,-0.2361358428487969,0.2201790225749112
775,408.10448199999996,-41.55656433105469,15.08835887908936,-3.2732355594635,0.5619894728368643,-0.23201436412577753,0.20739117447210817
776,408.11281499999996,-44.28914642333984,33.50910949707031,-9.10269641876221,0.6406531041982224,-0.26258089104477245,0.18259593418666326
777,408.121148,-47.52017593383789,46.3702392578125,-15.51935768127441,0.6777706438181347,-0.29517147005820715,0.15396494038251018
778,408.129481,-50.97719573974609,42.87186431884766,-18.79989051818848,0.716999063686449,-0.3312604524651357,0.15391712286034387
779,408.137814,-54.75679779052734,40.13638687133789,-18.2084846496582,0.8301447848884428,-0.32149132417172754,0.1568465816731357
780,408.146147,-55.82684707641602,18.46350479125977,-13.42698574066162,0.8766935309585254,-0.2673253477836143,0.15352143316852754
781,408.15448,-57.40147018432617,0.14140379428864,-5.33160543441772,0.8396526258818958,-0.16117718754982446,0.13254311619972653
782,408.16281299999997,-48.39922714233398,-2.76608657836914,1.405686378479,0.8242432925165917,-0.0666150511527551,0.12467667764546937
783,408.17114599999996,-38.36096954345703,2.68946003913879,6.98303890228271,0.8448079167580121,-0.02946301078309796,0.13198038753198163
784,408.17947899999996,-33.28272247314453,9.35695362091064,10.32147121429443,0.8717211898492304,0.013703291817587756,0.12842860757088162
785,408.187812,-27.5738639831543,8.80711650848389,10.15292835235596,0.8952967001467336,0.06463919367108979,0.09864005507255101
786,408.196145,-23.33684730529785,4.45955610275269,10.05026340484619,0.8914154403063713,0.08537274234148877,0.0904820889842755
787,408.204478,-28.31313896179199,-1.02984666824341,9.75183296203613,0.8887737624499263,0.04967934318951224,0.1399117221637653
788,408.212811,-37.46597671508789,-12.42297172546387,7.7796950340271,0.9259504201460858,0.07256741426428978,0.13533031453891634
789,408.221144,-35.01790618896484,-25.01398086547852,6.59734106063843,0.90707963826705,0.08477959705858776,0.10208559279539182
790,408.229477,-30.72213363647461,-27.74154090881348,6.6746187210083,0.8812142391594092,0.0834217667579653,0.08063249442042142
791,408.23780999999997,-23.33014678955078,-23.56727027893066,8.3118782043457,0.878829372172453,0.07173271811738265,0.0898795590108755
792,408.24614299999996,-16.22100257873535,-18.18601417541504,10.87977981567383,0.8999239668554194,0.02333154787822653,0.11276179430436122
793,408.25447599999995,-12.97772884368896,-15.0303897857666,12.86513996124268,0.9178193734616652,-0.012556267332057142,0.0909709078925
794,408.262809,-9.60033512115479,-15.26634693145752,14.42648315429688,0.9469494527699999,-0.05649651799883163,0.05354251180376326
795,408.271142,-7.70972490310669,-20.31922340393066,15.12409114837646,0.9706073877762774,-0.11852219396707958,0.045046818499662244
796,408.279475,-9.8312292098999,-31.1673583984375,15.52501010894775,0.9743372274904836,-0.16692878032217245,0.028488517415766326
797,408.287808,-11.83253192901611,-42.91079330444336,16.15406036376953,0.9513379116447602,-0.2156552489922969,0.00607559533447653
798,408.296141,-21.55719757080078,-51.20121765136719,15.75254535675049,0.9153917857578826,-0.24087553121605715,-0.019753312273901022
799,408.30447399999997,-32.26834106445312,-58.41782379150391,16.49440574645996,0.8732055158031234,-0.24584062245427343,-0.048351211815464284
800,408.31280699999996,-40.50442504882812,-63.51216125488281,17.09374809265137,0.8141815905668295,-0.24022968447938264,-0.055080469773739794
801,408.32113999999996,-42.08316040039062,-59.94683456420898,17.36774253845215,0.7699944535080265,-0.2513645619762183,-0.037556850180333674
802,408.329473,-38.92170715332031,-44.05400848388672,15.95410633087158,0.7613881266846948,-0.291320304481351,0.02853989601135204
803,408.337806,-38.89154815673828,-25.57804870605469,14.25168895721436,0.7602608933740734,-0.33805071091165306,0.09600175278527347
804,408.346139,-44.60639572143555,0.53281551599503,12.19813632965088,0.7728878332644091,-0.3138619782973306,0.14813102021509283
805,408.354472,-45.19124984741211,38.5612678527832,9.81771183013916,0.897464557569854,-0.2260254597177306,0.1279099133549908
806,408.362805,-36.13915252685547,69.16923522949219,6.57820606231689,1.1005361712708763,-0.16602410345661428,0.08526108094624081
807,408.371138,-31.98164367675781,74.83409881591797,-0.15303313732147,1.3171214473490815,-0.09071449844204693,0.05234849696256632
808,408.37947099999997,-22.63599014282227,50.79626083374023,-7.67685079574585,1.4340923270400692,0.040627876106573466,0.02440111673608163
809,408.38780399999996,-12.34797763824463,16.5853157043457,-15.78113174438477,1.4354425547074297,0.15162755031974898,0.037203218255724486
810,408.39613699999995,2.54569745063782,0.06999091804028,-21.67447853088379,1.3734263789897059,0.1694932032604602,0.0205673246967551
811,408.40447,14.65107154846191,-0.08088981360197,-25.92596626281738,1.3388235714970806,0.07496717633033265,0.03263338792080816
812,408.412803,19.2686882019043,-0.4887458384037,-29.70876884460449,1.3397968058683436,-0.04898341030490612,0.026058861795736733
813,408.421136,9.13450813293457,-3.53371858596802,-33.31238555908203,1.3446440015520364,-0.12253566664092347,-0.06984752659895
814,408.429469,2.30277347564697,-7.36379337310791,-35.26150512695312,1.314389462373695,-0.12913593224116734,-0.17569387445644488
815,408.437802,0.41984334588051,-4.16826009750366,-33.16376876831055,1.2393516423750899,-0.10672117982591937,-0.14171556550629283
816,408.44613499999997,-5.73717308044434,12.90617084503174,-35.51288604736328,1.1831791546879977,-0.08732207575622856,-0.027938336133957138
817,408.45446799999996,-15.0473051071167,37.06230926513672,-50.67109680175781,1.2560121380552947,-0.03048910474290612,0.07434177155397347
818,408.46280099999996,5.58331775665283,38.11760711669922,-67.04652404785156,1.3379485266549245,-0.06703006977937652,0.2138923138988265
819,408.471134,31.28511428833008,16.22678375244141,-76.8978042602539,1.2892380539251835,-0.14984334001735714,0.46390995687367953
820,408.479467,54.65132141113281,-3.87651491165161,-77.81143188476562,1.1071384196378744,-0.12651666086547245,0.6671808690440898
821,408.4878,72.56346130371094,-3.05785655975342,-74.366455078125,0.8644815367095325,-0.043103968610569386,0.7863984789167132
822,408.496133,62.39522552490234,18.14887809753418,-74.174072265625,0.7431564039113571,0.021103609885487755,0.6941795835689623
823,408.504466,54.41863250732422,36.367431640625,-77.46517944335938,0.7660573356005611,0.020895764535786735,0.5360111411736939
824,408.512799,46.46850204467773,35.49995803833008,-84.77079772949219,0.8074284572990571,-0.10145047489477653,0.5506911083143582
825,408.52113199999997,31.63487243652344,24.53509140014648,-94.62729644775392,0.776878668337452,-0.16376714317166122,0.5705406227890326
826,408.52946499999996,29.79530715942383,22.29646682739258,-103.08161163330078,0.7343343326023642,-0.15332759643087548,0.5889853652642694
827,408.537798,35.08740997314453,29.00022506713867,-111.02381134033205,0.7435019648804959,-0.2042567000097153,0.6525501426385376
828,408.546131,27.3011302947998,40.55128860473633,-115.23606872558594,0.794520475426499,-0.23712678831450815,0.6226711857075592
829,408.554464,7.70529937744141,49.59666442871094,-111.53109741210938,0.8956347679605285,-0.15221659018068875,0.5117689833349112
830,408.562797,7.19425010681152,62.88368225097656,-96.14442443847656,1.06954642704555,-0.033572376990805106,0.4030295050874051
831,408.57113,22.5014820098877,81.6021728515625,-72.62681579589844,1.3332021479703937,-0.01268000474997959,0.34612324773048875
832,408.579463,37.60694122314453,89.50296020507812,-45.29947280883789,1.669703892299107,-0.11739998447651734,0.27447386663787243
833,408.58779599999997,46.29745864868164,58.47997283935547,-20.20211601257324,1.901662982240015,-0.28840914064524076,0.197309693511651
834,408.59612899999996,38.72291946411133,-11.95684623718262,-6.70810890197754,1.8510575197180918,-0.37944905611933466,0.12071923333771327
835,408.60446199999996,30.87519454956055,-75.84915161132812,3.02575039863586,1.5393759279834978,-0.36823927139749285,0.11082259976133978
836,408.612795,32.61879348754883,-90.56936645507812,12.4479808807373,1.124090175239407,-0.3436193660813938,0.25081508013666937
837,408.621128,30.69814491271973,-79.70964050292969,17.17550849914551,0.7930681170249468,-0.3027222837720602,0.37542995141477037
838,408.629461,27.09321594238281,-60.23823165893555,22.79976272583008,0.6380657760464418,-0.23870005899546118,0.38032789619601526
839,408.637794,26.42001724243164,-33.22745132446289,28.89784049987793,0.5916616867999642,-0.17107681352264997,0.2886713524254
840,408.646127,28.79897689819336,-10.88309764862061,32.58955764770508,0.7054172243390765,-0.14465422046427856,0.22366781623996018
841,408.65446,21.65353775024414,-15.10419654846191,29.50723075866699,0.6779853178530326,-0.12702084317499285,0.2073201354669061
842,408.66279299999997,19.79982948303223,-16.60808753967285,28.2366828918457,0.5981215652154418,-0.08330663856194898,0.1666693906394806
843,408.67112599999996,23.81196784973145,-9.36465167999268,25.4766902923584,0.5477450818431622,-0.033533217347397955,0.1613424140579847
844,408.679459,28.150634765625,-0.99398696422577,19.47792816162109,0.6032408013635755,0.009087337827195917,0.12406465958575814
845,408.687792,36.21141052246094,5.05286359786987,21.54019546508789,0.7346325504536529,0.046913742410892856,0.08547494606095918
846,408.696125,40.75268936157227,-8.86262035369873,23.60761260986328,0.7798165204573653,0.046948072861652035,0.08596581463911122
847,408.704458,39.05294418334961,-27.86349487304688,23.49896812438965,0.7031995909554621,0.09768047503062653,0.04950447046026938
848,408.712791,43.01686477661133,-22.29138565063477,25.74270629882812,0.6843755683120417,0.08217442400601428,0.0341378608528449
849,408.721124,45.36730194091797,-8.06440544128418,27.6434383392334,0.7089771056661796,0.030618513725241835,0.0655572937459357
850,408.72945699999997,46.68954086303711,-4.23501682281494,27.25412940979004,0.7365002924082235,-0.014202695111838776,0.09028364200981326
851,408.73778999999996,44.42340469360352,-5.1688871383667,23.96957206726074,0.7290558912316142,-0.05712857659982142,0.0794539342121204
852,408.74612299999995,42.13134384155273,-0.23880192637444,18.87288475036621,0.7172427372056612,-0.12923767372053468,0.06585551767933162
853,408.754456,41.39841842651367,9.08544921875,13.27462768554688,0.7356691847042163,-0.17254862250113978,0.09144501418483468
854,408.762789,45.09773254394531,10.01266098022461,7.45099020004272,0.75730425970895,-0.25754755857039485,0.11971089304709898
855,408.771122,39.85114669799805,7.84625339508057,0.86957883834839,0.7898959821584275,-0.36424128376707754,0.11875408036368265
856,408.779455,30.9666633605957,5.6284384727478,-5.71022462844849,0.8077540203016632,-0.4277957215601081,0.08469760417938264
857,408.787788,23.64164161682129,3.24052214622498,-10.71913909912109,0.8227456345850113,-0.4517366934795765,0.04389295164419694
858,408.79612099999997,21.08093452453613,2.05914211273193,-13.55245876312256,0.8547439380567897,-0.434667577548903,-0.016807938108638776
859,408.80445399999996,20.21222877502441,-1.80575323104858,-16.02520942687988,0.8940505008308254,-0.45068069380156833,-0.04177893911089183
860,408.81278699999996,14.98282623291016,-15.43122959136963,-17.11468696594238,0.9031794022540652,-0.43826867123039387,-0.04973371722260306
861,408.82112,10.28981113433838,-25.80388069152832,-17.43269348144531,0.8920815526222694,-0.40499334432640816,-0.021525531703112243
862,408.829453,3.01226234436035,-29.20635032653809,-18.26331329345703,0.8853582460053112,-0.34708765088295407,0.021003519698065305
863,408.837786,-0.73027527332306,-30.01934814453125,-19.10747909545898,0.9228503947355305,-0.2766531827498459,0.07019201103521837
864,408.846119,-3.84410047531128,-34.11244964599609,-22.39329147338867,0.9711920485204582,-0.21401256931071427,0.10049146657087346
865,408.854452,-4.20147466659546,-47.37448883056641,-25.57591438293457,0.9800729946214327,-0.15354557913176833,0.10012286049979081
866,408.862785,-0.91162687540054,-59.08434677124023,-27.70116996765137,0.9836344816246816,-0.0802875294977306,0.05471127982042245
867,408.87111799999997,11.02575206756592,-67.10116577148438,-29.32256317138672,0.9982160646088265,-0.035411639481174484,0.0038794116402163263
868,408.87945099999996,22.53155899047852,-78.0799560546875,-31.29940795898438,1.0042729669687704,-0.00733292908692857,-0.041340385772743876
869,408.88778399999995,31.98101234436035,-88.84752655029297,-33.15713882446289,0.9460119325287489,0.021281438518543874,-0.07184356451034592
870,408.896117,43.38087844848633,-83.0559310913086,-32.79207611083984,0.8986127619840663,0.04845253058842245,-0.10056474987341428
871,408.90445,55.64761352539062,-53.29953765869141,-28.93799591064453,0.8989837218304071,0.008540405150578571,-0.0790211254236653
872,408.912783,61.20036697387695,-19.96248245239258,-24.24677658081055,0.9523550344973194,-0.054030831979245915,-0.04562023951082857
873,408.921116,64.75743103027344,12.57278633117676,-18.42714881896973,1.0549187173648753,-0.15481422142106632,-0.02881930798900408
874,408.929449,57.49925994873047,38.40144729614258,-10.89474201202393,1.1636330156910173,-0.29899171420506016,0.03284204371121428
875,408.93778199999997,35.60502624511719,39.29923629760742,-2.86796879768372,1.1635344369070866,-0.33167778229226835,0.08845025787548162
876,408.94611499999996,19.73128890991211,33.78341674804688,6.58138227462769,1.0945906931040235,-0.3420855074512714,0.12412313295870409
877,408.95444799999996,10.09425258636475,37.16786193847656,14.98714256286621,1.0911698244055916,-0.4447778390378367,0.15818030250315712
878,408.962781,1.39236652851105,37.36435699462891,21.06149291992188,1.1370501226308398,-0.5673104402970295,0.1283930515756408
879,408.971114,-1.9756920337677,23.3522777557373,23.289306640625,1.1993969703207212,-0.597811523748904,-0.03267557949435918
880,408.979447,12.97558975219727,1.33886969089508,25.31061935424805,1.2833465848650254,-0.5781260801821336,-0.24823317722398364
881,408.98778,27.07095718383789,-17.18092727661133,26.18547439575195,1.3324108902288938,-0.600023026369056,-0.3958372923792622
882,408.996113,26.50940704345703,-34.52496719360352,23.64678192138672,1.3582348336978836,-0.44946689994967753,-0.45363212118343466
883,409.004446,34.2634162902832,-57.59944534301758,20.80499649047852,1.3551642943401723,-0.2405333275697673,-0.31370437875085916
884,409.01277899999997,30.92691230773926,-72.16685485839844,22.9541015625,1.301230703081403,-0.21744346132083772,0.16349308344782654
885,409.02111199999996,8.53338146209717,-76.3577880859375,24.90699195861816,1.1567490441458559,-0.15995720211340408,0.5676533251392601
886,409.029445,8.73929786682129,-54.74652481079102,22.60427474975586,0.8256308886469623,-0.1321721928460255,0.6244197183725786
887,409.037778,2.27792620658875,16.99547576904297,19.79036331176758,0.42785897546885,-0.3497942126527122,0.7710098247138816
888,409.046111,-27.11471939086914,100.18729400634766,25.0086841583252,0.48363228233493055,-0.5806433424657703,0.8514020880874326
889,409.054444,-29.50283813476562,128.57972717285156,44.63686752319336,0.815804199296601,-0.7425988450342296,0.7099026563216224
890,409.062777,-27.00992584228516,121.50047302246094,71.68277740478516,1.1219924809981368,-1.0363638157747235,0.7066977753931163
891,409.07111,-60.41194534301758,104.08599090576172,98.13706970214844,1.4190984258846355,-0.8969183357394469,0.5393471523207061
892,409.07944299999997,-60.6409797668457,56.78988265991211,118.0884017944336,1.5195850450165416,-0.4329931006139643,0.21876398397951732
893,409.08777599999996,-60.06341934204102,-3.1139190196991,117.72270965576172,1.3515114297672193,-0.10193100997379897,0.08879077677824081
894,409.09610899999996,-52.05947875976562,-28.34087371826172,110.28170776367188,1.1241472010709805,0.05900397592661326,0.12160843732405713
895,409.104442,-48.84056854248047,-20.1832389831543,98.37771606445312,0.9551186464270764,0.21584267518958267,0.354442693749253
896,409.112775,-25.15522956848145,-1.97333407402039,83.78836059570312,0.8692541900946172,0.3350261279514857,0.5155241732694663
897,409.121108,6.51795625686646,20.15218353271484,69.13249969482422,0.8630917996776346,0.23765082262000303,0.6069687434605194
898,409.129441,20.54228782653809,34.77854156494141,53.1945915222168,0.9370978024541111,0.07404405243542755,0.6288780971449245
899,409.137774,26.0311164855957,45.7563362121582,33.1370964050293,1.1247049059186662,-0.1693993320270459,0.5748245667438122
900,409.146107,23.07693862915039,39.67641448974609,18.05533218383789,1.3473213935384947,-0.4389337617523816,0.49215034562714277
901,409.15443999999997,10.82970333099365,17.23186874389648,7.90668249130249,1.463130250269053,-0.6683846882411407,0.38606001406299795
902,409.16277299999996,-9.18845367431641,-1.559445977211,0.73387360572815,1.4139089778977998,-0.7075751557642102,0.2845080774657581
903,409.171106,-28.28378105163574,-3.75543308258057,0.50329446792603,1.3774887396364794,-0.6961910578669336,0.306160693265954
904,409.179439,-51.95753860473633,-24.76429748535156,0.31218719482422,1.3781892036905092,-0.5237824576241633,0.32607606479099793
905,409.187772,-60.64276504516602,-66.56485748291016,1.86065685749054,1.1645831867140162,-0.32929264769262245,0.3414952511690102
906,409.196105,-60.23662567138672,-75.40526580810547,4.61457014083862,0.8419880575063274,-0.17359680059004795,0.29963880169148366
907,409.204438,-58.29126739501953,-54.89233016967773,4.47229623794556,0.7383313470957235,-0.14240322064380306,0.32614946365356423
908,409.212771,-59.61331939697266,-35.77232360839844,2.30621290206909,0.7008309267005143,-0.10300335835437346,0.2910406735478612
909,409.22110399999997,-55.54169845581055,-16.34805297851562,0.62980473041534,0.6349024967271458,-0.06518822543475102,0.235149787396801
910,409.22943699999996,-48.45423126220703,0.81336885690689,-0.57897257804871,0.5852146537936459,-0.07450344611187346,0.23300895885545406
911,409.23776999999995,-42.05642700195312,14.48281192779541,-3.37851023674011,0.5941496090013152,-0.12120963359365612,0.24390145223967855
912,409.246103,-39.24067687988281,19.36491966247559,-4.99884414672852,0.6012273807914887,-0.17965894572588878,0.2429603313913153
913,409.254436,-44.07600021362305,15.39074039459229,-5.12140989303589,0.6188037930702673,-0.22675287966825508,0.25025949186208263
914,409.262769,-49.02689361572266,5.04397916793823,-4.17527055740356,0.6032135535259632,-0.24665345951002446,0.25001214475047856
915,409.271102,-52.77965927124023,7.34696245193481,-5.48969507217407,0.599465905403604,-0.2938318495847745,0.24639236683748164
916,409.279435,-56.58687591552734,6.70202350616455,-14.68459796905518,0.5966498900432979,-0.3528306922134091,0.23465475257562143
917,409.28776799999997,-61.97470474243164,12.84805870056152,-20.50930595397949,0.602383224331603,-0.3344829715028102,0.18982550319360203
918,409.29610099999996,-62.20927429199219,17.01336288452148,-21.64210510253906,0.6603733374148,-0.24038594596239998,0.15654209925203877
919,409.30443399999996,-54.96129989624023,15.90893840789795,-20.5117301940918,0.7553967164487254,-0.20870001948609693,0.15605930162935816
920,409.312767,-51.95358276367188,6.71393156051636,-20.37980461120605,0.7889610407303785,-0.17171362224890305,0.16217419079371834
921,409.3211,-49.41250610351562,-9.53771495819092,-16.44009017944336,0.7378311546481386,-0.11506416359726224,0.14907020695355508
922,409.329433,-42.9670524597168,-9.07526779174805,-12.05307006835938,0.7230983461652479,-0.0774499469873857,0.1445034936982755
923,409.337766,-35.91462326049805,2.14541292190552,-6.43928575515747,0.741781799160704,-0.02727099827357653,0.1132403952734806
924,409.346099,-32.41375732421875,10.66361331939697,-0.83068323135376,0.7737687169289101,-0.031233624536164285,0.14078295960718265
925,409.354432,-37.63429260253906,14.39659118652344,0.56451290845871,0.8528971185489581,-0.021068394488218366,0.17170156751360202
926,409.36276499999997,-37.94412231445312,10.2142915725708,1.83031892776489,0.9382721842551713,0.017545037731832653,0.14313396142453572
927,409.37109799999996,-34.08747100830078,0.04232757166028,4.24825286865234,0.965818093747509,0.01962902138427857,0.09977607702722346
928,409.37943099999995,-37.0718994140625,-9.28993606567383,5.59141540527344,0.9601124938653437,0.02121779231392653,0.05440500925998265
929,409.387764,-34.99036407470703,-17.95952415466309,7.09136247634888,0.9535460569420642,0.0494322241569051,0.009530057408371428
930,409.396097,-31.97466278076172,-22.3692512512207,8.74573612213135,0.9404173675848508,0.047915550519009184,-0.004324480054937755
931,409.40443,-28.52744674682617,-25.34007263183594,9.58660221099854,0.9376176522702592,0.05056944732763367,0.008005834355645919
932,409.412763,-24.9863452911377,-28.2513313293457,10.84830856323242,0.9399500671698122,0.05225105553257244,0.037155799111541835
933,409.421096,-19.60875701904297,-27.94011497497559,12.52053260803223,0.9495099709958448,0.045556812262048975,0.027743766502458165
934,409.42942899999997,-17.64308738708496,-23.61104202270508,13.62496662139893,0.9654517076453387,0.016399564183487755,0.01694308403803367
935,409.43776199999996,-14.39492130279541,-25.45885848999023,15.33828067779541,1.0183568876616806,-0.005364597071798979,-0.020297149918517346
936,409.44609499999996,-7.55445671081543,-37.6390495300293,17.9142894744873,1.031119677485252,-0.05392909658198469,-0.039327460892346934
937,409.454428,-6.53752851486206,-54.64250564575195,20.30372428894043,0.9892932736143775,-0.1031417992650245,-0.07122899196585816
938,409.462761,-8.77036476135254,-66.57957458496094,21.94001960754395,0.926213751033861,-0.14006120818001835,-0.09894003673475611
939,409.471094,-13.81881332397461,-74.11383056640625,22.33998489379883,0.8581270490373887,-0.17758364580115507,-0.09869053047530509
940,409.479427,-18.78207015991211,-77.5221176147461,21.70273780822754,0.775204872598453,-0.22644782552913773,-0.06750312386726835
941,409.48776,-22.434814453125,-69.52033996582031,19.4270076751709,0.711494076008699,-0.28575977500604083,-0.002136917366665306
942,409.496093,-24.20965003967285,-44.43453216552734,16.03181076049805,0.7009731506814765,-0.36739152304980205,0.08610053330051633
943,409.50442599999997,-31.82107734680176,-13.11370849609375,12.54883766174316,0.7367958827894561,-0.41517885363831836,0.1473592860358102
944,409.51275899999996,-38.64619064331055,14.20028400421143,8.87311744689941,0.8061300491800112,-0.39078189402210506,0.14494740233129386
945,409.52109199999995,-37.39630126953125,38.10133743286133,3.98730134963989,0.9528920115256796,-0.336714569403201,0.10980536743086225
946,409.529425,-29.49912261962891,51.83049774169922,-1.53374660015106,1.1090044099457408,-0.3100868390530959,0.10972082614898672
947,409.537758,-20.25273132324219,51.15570068359375,-7.6078200340271,1.2405779896950235,-0.2661521094185969,0.15861001549934897
948,409.546091,-12.43881607055664,38.67115783691406,-12.13794994354248,1.316153078663106,-0.16634809727571426,0.2022208243000265
949,409.554424,-8.53532314300537,25.18184661865234,-16.29352378845215,1.348675124499262,-0.010486822955462244,0.21165353911263568
950,409.562757,-2.2962532043457,17.2802791595459,-19.4417896270752,1.3679729189191538,0.12255408325973774,0.1519480530096561
951,409.57108999999997,-0.88242381811142,14.96406555175781,-23.02840423583984,1.396168300083705,0.10722168854304692,0.06132880035711836
952,409.57942299999996,-13.07534790039062,11.10020637512207,-27.24905014038086,1.4312876487264825,0.0254059689385551,-0.06587470064357856
953,409.58775599999996,-34.83727645874023,-2.17347431182861,-30.3895378112793,1.411932828475018,-0.03915169105237857,-0.23711603515002141
954,409.596089,-56.74643325805664,-16.98236083984375,-32.36391448974609,1.316361816561952,-0.07766614154893571,-0.38437045350366733
955,409.604422,-59.59915924072266,-24.99318313598633,-34.23154830932617,1.1802679178666091,-0.0695474537051449,-0.33092861272850815
956,409.612755,-29.49062538146973,-20.4598560333252,-38.55434417724609,1.08593648793746,-0.021583798284433672,0.044729986361094896
957,409.621088,5.00011301040649,3.30259084701538,-45.99614715576172,1.0827896546344367,-0.04242057094768571,0.4142280987330847
958,409.629421,9.99875545501709,32.8049430847168,-51.91780853271484,1.1280029647204337,-0.09647817636022755,0.42729066342723565
959,409.637754,8.80780601501465,50.96857452392578,-54.22249603271484,1.1248090315838244,0.10483750275203162,0.32499201443730613
960,409.64608699999997,63.36689758300781,54.30404281616211,-58.03725051879883,1.1216793254930142,0.29495677169488366,0.5459518335303479
961,409.65441999999996,88.34557342529297,49.9217643737793,-65.63716888427734,1.150329356290856,0.09094993678890918,0.8830183379504143
962,409.662753,50.66080093383789,46.66544342041016,-74.28363037109375,1.147659652087153,0.07520421427123367,0.6476969135050867
963,409.671086,51.47705078125,44.3834114074707,-80.95124816894531,1.1022514226485274,0.09916824345686019,0.37917504505235305
964,409.679419,67.42879486083984,39.12181091308594,-89.34831237792969,1.0911470529984457,-0.2344909979372612,0.5029309525781744
965,409.687752,47.22574996948242,21.19617080688477,-96.76142120361328,1.0463850838797428,-0.4702900867072908,0.6099142833631868
966,409.696085,30.39816284179688,-0.41111239790916,-99.03163146972656,0.9189526888788958,-0.4164832465502683,0.5605400825033378
967,409.704418,27.75076484680176,-17.42611312866211,-96.60546875,0.7595109939575193,-0.38700524641543055,0.6043975207270408
968,409.71275099999997,13.50703239440918,-17.63123893737793,-93.09040832519533,0.6321856926898571,-0.32535433769226124,0.6427761000029898
969,409.72108399999996,-2.011563539505,2.62466979026794,-87.18126678466797,0.5716467876823581,-0.2017357762979,0.5914257497203591
970,409.72941699999996,-11.58250713348389,30.7746753692627,-77.80938720703125,0.6631569473110898,-0.0868279897436806,0.4987295306458765
971,409.73775,-11.02993965148926,60.03145599365234,-66.74333190917969,0.8680112994447051,0.00700245858455204,0.40541999194086836
972,409.746083,-3.79510760307312,91.79981994628906,-54.21859741210938,1.1814096022625356,0.014671899226246937,0.29070807963001527
973,409.754416,14.89239978790283,112.08131408691406,-32.36020278930664,1.5523700324856509,-0.06432529614896224,0.1258726144323541
974,409.762749,29.22015762329102,84.04975128173828,-12.17123985290527,1.8057533186309194,-0.2148491509106694,0.06461475576673266
975,409.771082,29.32637977600098,16.67330551147461,-0.47257027029991,1.7618105362872682,-0.22804423254363368,0.04170386158690204
976,409.779415,41.69664001464844,-48.5813102722168,7.66513872146606,1.5324673360707806,-0.1736696034061663,0.1416436993345918
977,409.78774799999997,39.23144149780273,-88.50606536865234,9.4103889465332,1.091861530226104,-0.1912650770070602,0.2563225736423418
978,409.79608099999996,35.56230545043945,-76.2031478881836,10.09214878082275,0.7746162706491897,-0.16559041276269998,0.22680992982825407
979,409.804414,39.17742919921875,-44.48461151123047,12.42465877532959,0.7196303776332306,-0.17197405805393162,0.26365825108119384
980,409.812747,40.09204864501953,-36.52812957763672,15.78225517272949,0.72863126287655,-0.18984899228932856,0.2743983998590581
981,409.82108,39.52140045166016,-30.87053298950195,18.23361396789551,0.6876310523675407,-0.1955701866928408,0.25262190371143567
982,409.829413,35.04536437988281,-24.17698860168457,18.38923645019531,0.6524682044982908,-0.2014859720152255,0.24808297351914999
983,409.837746,26.86578178405762,-18.23645973205566,16.88538551330566,0.5962254563156438,-0.15237803361853774,0.2437229545748959
984,409.846079,23.6960563659668,-17.6630802154541,15.08953952789307,0.5381731111176163,-0.06760765095146326,0.22866385323660712
985,409.85441199999997,25.08596420288086,-12.59104633331299,16.98747825622559,0.5336401900466612,0.0019446600760734693,0.1827805747791214
986,409.86274499999996,34.0013313293457,3.82775807380676,20.01796340942383,0.5841011903723887,0.0089363061956,0.15275065996208978
987,409.87107799999995,35.13680648803711,21.30602836608887,24.00160980224609,0.7001304626464847,0.0005458235474571428,0.13712389128548774
988,409.879411,33.98855972290039,14.9559850692749,23.62238121032715,0.8237016444303551,0.01191478754792857,0.16047311072446835
989,409.887744,37.34290313720703,-2.52333903312683,22.50900650024414,0.8475319220095264,0.06301856162596733,0.12792957072355307
990,409.896077,46.28095626831055,-9.66944789886475,21.06340217590332,0.8046324885621366,0.015417950189843876,0.13053515735937654
991,409.90441,47.63301086425781,-6.66440486907959,19.43477058410645,0.7975233331018561,-0.014203811178402042,0.12238474524751018
992,409.912743,48.95740509033203,-8.07851982116699,18.26255989074707,0.7980239148042642,-0.05660021791652755,0.14226304025066122
993,409.92107599999997,52.79308700561523,-14.50330924987793,14.02409076690674,0.7666541119011081,-0.05510788791033674,0.1465731494280755
994,409.92940899999996,54.72489929199219,-15.33218669891357,8.34314441680908,0.7173252592281418,-0.12172124823745406,0.1579307901616
995,409.93774199999996,52.59150695800781,-10.3887243270874,1.92578554153442,0.7221235061178398,-0.19104231377037242,0.13446884495871428
996,409.946075,50.86884689331055,-6.24343395233154,-4.01784610748291,0.7574531983356082,-0.2671993265346602,0.14149958990058162
997,409.954408,43.92588424682617,-4.66979122161865,-10.07311058044434,0.77866150408375,-0.3047299628355061,0.13069504377793265
998,409.962741,40.63433456420898,-2.1331570148468,-14.66244602203369,0.8162692128395551,-0.34582488390864186,0.11233573057213571
999,409.971074,31.77483177185059,-0.84578305482864,-20.06599998474121,0.8456466635879203,-0.3946548335406245,0.11436278722724183
1000,409.979407,17.79722023010254,-5.1824049949646,-26.40900611877441,0.8644051454505143,-0.4026619755491918,0.06332763603755408
1001,409.98774,10.53122425079346,-8.21672058105469,-30.03280258178711,0.882800063308404,-0.39482248072721526,0.008635048811532653
1002,409.99607299999997,8.84393787384033,-7.80376863479614,-32.32818222045898,0.9357870841512878,-0.3893560536053714,-0.0026669839815214283
1003,410.00440599999996,4.96115016937256,-18.32229423522949,-33.45178604125977,0.9753551288526886,-0.36253520420619384,-0.010675911088378572
1004,410.01273899999995,4.00486946105957,-33.30770492553711,-31.01775360107422,0.9900784979061203,-0.3287121471093622,-0.016645637093758162
1005,410.021072,6.23672151565552,-41.07582092285156,-27.32784843444824,0.9998568710015744,-0.30242233860249385,-0.0036799177831530606
1006,410.029405,7.9454517364502,-44.64863586425781,-24.60666656494141,1.0186754927343256,-0.2871006848860755,0.019643022393693876
1007,410.037738,7.78585243225098,-48.96829986572266,-25.11115074157715,1.0389355250767294,-0.25059283996114895,0.02530942157823163
1008,410.046071,10.16786098480225,-55.26966094970703,-25.87234497070312,1.0241137718667785,-0.200578290589002,0.001901150586045918
1009,410.054404,14.00619983673096,-58.98532867431641,-26.69414710998535,0.9909365128497684,-0.15791402787578365,-0.023533885880392857
1010,410.06273699999997,16.81875991821289,-60.29618072509766,-27.96953964233398,0.9597613860149774,-0.10787041819825509,-0.0489667909485949
1011,410.07106999999996,22.770751953125,-62.55873489379883,-28.26084327697754,0.9463484433232519,-0.07439376140127346,-0.07531088833906223
1012,410.07940299999996,27.49056053161621,-62.86722183227539,-27.85170936584473,0.9201956768425142,-0.02428809446947959,-0.09284206190887755
1013,410.087736,36.4666633605957,-56.6479606628418,-26.08551597595215,0.9138345718383785,0.008609319219783673,-0.12254076344626326
1014,410.096069,48.75777816772461,-37.26475143432617,-21.05970764160156,0.9459044008838886,-0.02577985731922857,-0.11463547239498266
1015,410.104402,54.45664978027344,-17.97966384887695,-16.77231788635254,0.963514386391153,-0.06574641076885918,-0.08486832891191734
1016,410.112735,55.58463668823242,9.00351905822754,-12.37743473052979,1.0179348381198183,-0.1491481187392255,-0.014268187235812243
1017,410.121068,48.10011672973633,31.4935245513916,-5.44689607620239,1.0766549013098887,-0.2160157719436959,0.07700567342797142
1018,410.129401,43.52737426757812,41.60083389282227,2.80428075790405,1.1342713297629845,-0.3051522313332071,0.10245970317295612
1019,410.13773399999997,36.79789352416992,41.17475128173828,9.24322891235352,1.2010599642383804,-0.4730980250300194,0.1289447229735704
1020,410.14606699999996,26.43354225158691,27.52897453308105,12.94493961334229,1.2724378157635121,-0.644617421286447,0.1171026424485806
1021,410.1544,16.00711250305176,7.09974431991577,16.21960830688477,1.2687338614950376,-0.8002688446823428,0.039861801327490815
1022,410.162733,7.41809034347534,-5.78364515304565,19.10172080993652,1.2322802446326429,-0.8075662048495541,-0.14706809909976223
1023,410.171066,11.40615653991699,-15.48305034637451,23.88562965393066,1.2093117772316448,-0.7013245018161071,-0.2703533123950571
1024,410.179399,18.7342586517334,-30.57553291320801,27.89015769958496,1.228237054785904,-0.48695462090628466,-0.23637316664870917
1025,410.187732,26.70777702331543,-45.09814453125,36.52241897583008,1.2646931044909417,-0.29179882030097753,-0.024250678870142855
1026,410.196065,28.04238700866699,-45.81959533691406,46.27243041992188,1.244275132004096,-0.2065980920986255,0.2227857648109908
1027,410.20439799999997,29.43961906433105,-30.75283813476562,46.66832733154297,1.0871086315232878,-0.26774472119856835,0.328449886672351
1028,410.21273099999996,2.11906909942627,3.69774103164673,41.7548828125,0.8529770131013825,-0.523829606114602,0.6386085918971469
1029,410.22106399999996,-50.5733757019043,41.3341178894043,45.12535858154297,0.8254178689450631,-0.6051687805020082,0.8260890415736613
1030,410.229397,-46.80154800415039,57.17621612548828,57.5625,0.874930498551349,-0.5441435015931418,0.5646698815482
1031,410.23773,-28.22402000427246,72.86946868896484,68.46370697021484,0.8782650499927753,-0.7892468510841836,0.5317376097854306
1032,410.246063,-60.45634841918945,87.39414978027344,78.49026489257812,1.0249971856876294,-0.7497139852874133,0.5246791061089958
1033,410.254396,-72.74226379394531,75.73858642578125,88.561279296875,1.225278134248695,-0.3249783661900735,0.3532261264567469
1034,410.262729,-61.08277130126953,41.65791702270508,94.14920043945312,1.2532854080200193,-0.04750089985983673,0.2368736510374112
1035,410.271062,-46.54001998901367,5.31489086151123,94.39259338378906,1.1512272698538641,0.058869634355817345,0.18470523308734488
1036,410.27939499999997,-35.39347457885742,-13.2160587310791,91.12083435058594,0.9732844878216184,0.07850803891006734,0.3331165654318673
1037,410.28772799999996,-29.21843338012695,-9.07985019683838,85.95245361328125,0.8348222654692978,0.11967364622622143,0.543513103407256
1038,410.296061,-7.17526769638062,9.83565425872803,80.33476257324219,0.8021133773180907,0.14044576761673877,0.5968697703614531
1039,410.304394,7.99972534179688,31.86013793945312,70.29962158203125,0.8662644211126836,0.028101500807976527,0.589907363969452
1040,410.312727,13.29892063140869,45.15655136108398,54.1590576171875,1.041984168850646,-0.15667150215226733,0.552168670965701
1041,410.32106,11.55119323730469,51.69803237915039,37.89906692504883,1.2533658864546795,-0.34669399261474587,0.48325149380430915
1042,410.329393,1.62304961681366,46.1463623046875,22.33653450012207,1.4260751373913827,-0.5074323926653184,0.3974736466699714
1043,410.337726,-11.87603664398193,24.70165634155273,10.27190494537354,1.4896471646367284,-0.5879303387233193,0.3037312809301877
1044,410.34605899999997,-32.88127136230469,8.13005542755127,5.1955714225769,1.4379938281312286,-0.6251086020956235,0.2892131708106214
1045,410.35439199999996,-57.25873565673828,-16.55919456481934,5.53950548171997,1.3799059147737458,-0.5020003902668857,0.30359560129593877
1046,410.36272499999995,-67.35392761230469,-58.53096008300781,5.29524230957031,1.200489803236358,-0.2868799774014224,0.331595868480449
1047,410.371058,-61.70699691772461,-81.629150390625,5.83666801452637,0.9444790470356846,-0.13926474415526122,0.31492116499920303
1048,410.379391,-54.25959777832031,-72.51181030273438,8.73123741149902,0.7333522426838776,-0.1114124181319255,0.3172634815683173
1049,410.387724,-53.39115524291992,-52.30068969726562,9.88281536102295,0.6480922017778673,-0.07150687733474999,0.31102788691617955
1050,410.396057,-49.80599212646484,-37.88832855224609,8.07317447662354,0.6041084017072408,-0.017181212196544896,0.27706138941706426
1051,410.40439,-41.36012649536133,-14.69055366516113,7.92772054672241,0.586709440970907,-0.038707554340362244,0.2748974731990265
1052,410.41272299999997,-37.89509201049805,-2.27508449554443,6.19253063201904,0.5576700580363367,-0.09590081414397857,0.2752311618960632
1053,410.42105599999996,-37.75659561157227,6.21721029281616,1.65414392948151,0.5360242785239704,-0.1839634593652214,0.28661058873546325
1054,410.42938899999996,-44.90651321411133,14.65182018280029,-3.86984443664551,0.5488391311801214,-0.25403047094539694,0.27958650978244076
1055,410.437722,-48.07498550415039,24.67311859130859,-8.17937660217285,0.607023482420006,-0.3108646918316275,0.24333953857421836
1056,410.446055,-53.87154388427734,30.67078018188477,-11.03053951263428,0.7125190326145714,-0.3490805382631265,0.20446597313394388
1057,410.454388,-53.75385284423828,16.21056747436523,-13.43807506561279,0.7558811440759775,-0.35935696290463776,0.200444082824551
1058,410.462721,-61.70429992675781,3.49718856811523,-20.23746109008789,0.7507348547176438,-0.4067526544843398,0.2097505209397296
1059,410.471054,-68.62556457519531,16.81383895874023,-21.38154411315918,0.7372410443364357,-0.3399878861952806,0.13857843924541838
1060,410.479387,-65.80119323730469,26.83791351318359,-21.02197074890137,0.779794381589306,-0.26060649326869384,0.1360470786386602
1061,410.48771999999997,-61.48236465454102,28.46570014953613,-19.94892883300781,0.8173057984332652,-0.23204316898268057,0.16943542324766836
1062,410.49605299999996,-60.79065704345703,23.90215492248535,-14.52244091033936,0.8324662033392458,-0.23372195204909996,0.1916741594976306
1063,410.50438599999995,-62.80986022949219,15.19963359832764,-8.76700401306152,0.8278646274488796,-0.2287006134889561,0.18125881954115303
1064,410.512719,-65.50106048583984,10.5481481552124,-5.35758304595947,0.8448721438038101,-0.1781008073261806,0.16331205562669387
1065,410.521052,-65.93537902832031,6.03523588180542,-3.87710046768188,0.8898933566346457,-0.11239196572984998,0.1524522353191765
1066,410.529385,-67.00599670410156,-1.15687167644501,-3.83519649505615,0.9169437447372744,-0.08540163842999184,0.1713075199905704
1067,410.537718,-67.91950988769531,-8.2838306427002,-5.21004724502563,0.9550689191234356,-0.04176712461880306,0.14357518176643264
1068,410.546051,-65.17245483398438,-13.08662033081055,-4.93812417984009,0.9524347344223337,-0.02002214594763163,0.1081188844174755
1069,410.55438399999997,-62.95448303222656,-16.55254554748535,-3.10398316383362,0.9198803804358653,-0.017350319088721426,0.08416607671854488
1070,410.56271699999996,-61.23977661132812,-17.9282112121582,-0.4496211707592,0.9165953616706694,0.015791358084094896,0.06045975247207958
1071,410.57104999999996,-55.82357788085938,-24.65334701538086,2.02888441085815,0.928275439204002,0.030574071772244894,0.07185347834411938
1072,410.579383,-54.44573593139648,-29.86312484741211,2.377521276474,0.9393983957718826,0.013876405297493878,0.0882493233194153
1073,410.587716,-55.89071655273438,-35.69377517700195,2.26212954521179,0.9288668145938794,0.003735623037328571,0.06408607473178775
1074,410.596049,-54.85960006713867,-39.75790786743164,1.7251513004303,0.9297646308431816,0.02797838680598163,0.011578564893226529
1075,410.604382,-51.67305755615234,-39.39999008178711,2.24919462203979,0.9280384803304866,0.04249113858962551,-0.024270240445526527
1076,410.612715,-45.91616439819336,-40.30292892456055,3.84107208251953,0.9272836179149397,0.04330195030387551,-0.02725738956003775
1077,410.621048,-39.87714385986328,-43.59433364868164,5.95650625228882,0.9215199217504387,0.020325606574817346,-0.021325310274045918
1078,410.62938099999997,-36.1533203125,-49.02910995483398,8.31763458251953,0.8999420672046898,-0.018596933508406122,-0.03262462056412959
1079,410.63771399999996,-31.68338966369629,-51.00627899169922,11.11251735687256,0.8665924656147858,-0.053430017159909186,-0.05173599841643367
1080,410.64604699999995,-32.73197174072266,-52.14170074462891,13.4949836730957,0.8386449424587948,-0.08215873217096122,-0.0755939556627857
